"Subject","stimcol","trial","TargAcc","TotAcc","corrResp","procedure","kind","BuffOnset","TrialAcc","RT","n","Resp"
102,"red",1,0,100,2,"TrialProc","Nontarget",52318,1,780,2,2
102,"red",2,0,100,2,"TrialProc","Nontarget",54541,1,477,2,2
102,"red",3,0,100,2,"TrialProc","Nontarget",57115,1,524,2,2
102,"red",4,0,100,2,"TrialProc","Nontarget",59606,1,499,2,2
102,"red",5,0,100,2,"TrialProc","Nontarget",62030,1,409,2,2
102,"red",6,0,100,2,"TrialProc","Nontarget",64671,1,525,2,2
102,"red",7,0,100,2,"TrialProc","Nontarget",67379,1,710,2,2
102,"red",8,100,100,1,"TrialProc","Target",69703,1,515,2,1
102,"red",9,100,100,2,"TrialProc","Nontarget",72110,1,409,2,2
102,"red",10,100,100,2,"TrialProc","Nontarget",74651,1,423,2,2
102,"red",11,100,100,2,"TrialProc","Nontarget",77276,1,526,2,2
102,"red",12,50,91.66666667,1,"TrialProc","Target",80368,0,1097,2,2
102,"red",13,66.66666667,92.30769231,1,"TrialProc","Target",82642,1,838,2,1
102,"red",14,66.66666667,85.71428571,2,"TrialProc","Lure",84999,0,680,2,1
102,"red",15,66.66666667,86.66666667,2,"TrialProc","Nontarget",87406,1,576,2,2
102,"red",16,50,81.25,1,"TrialProc","Target",90131,0,773,2,2
102,"red",17,50,82.35294118,2,"TrialProc","Nontarget",92839,1,958,2,2
102,"red",18,50,83.33333333,2,"TrialProc","Nontarget",95062,1,653,2,2
102,"red",19,50,84.21052632,2,"TrialProc","Nontarget",97369,1,438,2,2
102,"red",20,60,85,1,"TrialProc","Target",99893,1,441,2,1
102,"red",21,60,85.71428571,2,"TrialProc","Nontarget",102434,1,463,2,2
102,"red",22,60,86.36363636,2,"TrialProc","Lure",105426,1,936,2,2
102,"red",23,60,86.95652174,2,"TrialProc","Nontarget",108151,1,1151,2,2
102,"red",24,66.66666667,87.5,1,"TrialProc","Target",110441,1,920,2,1
102,"red",25,71.42857143,88,1,"TrialProc","Target",113384,1,1352,2,1
102,"red",26,71.42857143,84.61538462,2,"TrialProc","Nontarget",116042,0,0,2,NA
102,"red",27,71.42857143,85.18518519,2,"TrialProc","Nontarget",117763,1,712,2,2
102,"red",28,71.42857143,85.71428571,2,"TrialProc","Lure",120522,1,944,2,2
102,"red",29,71.42857143,82.75862069,2,"TrialProc","Lure",123046,0,937,2,1
102,"red",30,71.42857143,83.33333333,2,"TrialProc","Nontarget",125537,1,902,2,2
102,"red",31,75,83.87096774,1,"TrialProc","Target",127944,1,790,2,1
102,"red",32,77.77777778,84.375,1,"TrialProc","Target",130501,1,831,2,1
102,"red",33,80,84.84848485,1,"TrialProc","Target",132925,1,748,2,1
102,"red",34,80,85.29411765,2,"TrialProc","Nontarget",135399,1,703,2,2
102,"red",35,72.72727273,82.85714286,1,"TrialProc","Target",138174,0,957,2,2
102,"red",36,72.72727273,83.33333333,2,"TrialProc","Nontarget",140481,1,744,2,2
102,"red",37,72.72727273,83.78378378,2,"TrialProc","Nontarget",143156,1,893,2,2
102,"red",38,75,84.21052632,1,"TrialProc","Target",145530,1,740,2,1
102,"red",39,75,84.61538462,2,"TrialProc","Nontarget",148054,1,740,2,2
102,"red",40,75,85,2,"TrialProc","Nontarget",150394,1,561,2,2
102,"red",41,75,85.36585366,2,"TrialProc","Lure",152919,1,558,2,2
102,"red",42,75,85.71428571,2,"TrialProc","Nontarget",155343,1,458,2,2
102,"red",43,75,86.04651163,2,"TrialProc","Nontarget",157817,1,404,2,2
102,"red",44,76.92307692,86.36363636,1,"TrialProc","Target",160441,1,500,2,1
102,"red",45,76.92307692,86.66666667,2,"TrialProc","Nontarget",162865,1,406,2,2
102,"red",46,76.92307692,86.95652174,2,"TrialProc","Nontarget",165506,1,532,2,2
102,"red",47,76.92307692,87.23404255,2,"TrialProc","Nontarget",168081,1,596,2,2
102,"red",48,78.57142857,87.5,1,"TrialProc","Target",171207,1,1195,2,1
102,"red",49,78.57142857,87.75510204,2,"TrialProc","Nontarget",173447,1,908,2,2
102,"red",50,78.57142857,88,2,"TrialProc","Nontarget",175954,1,889,2,2
102,"red",51,80,88.23529412,1,"TrialProc","Target",178278,1,685,2,1
102,"red",52,80,88.46153846,2,"TrialProc","Nontarget",180819,1,708,2,2
102,"red",53,80,88.67924528,2,"TrialProc","Nontarget",183544,1,905,2,2
102,"red",54,80,88.88888889,2,"TrialProc","Lure",186118,1,966,2,2
102,"red",55,80,89.09090909,2,"TrialProc","Nontarget",188609,1,940,2,2
102,"red",56,80,89.28571429,2,"TrialProc","Nontarget",191317,1,1125,2,2
102,"red",57,81.25,89.47368421,1,"TrialProc","Target",193557,1,841,2,1
102,"red",58,81.25,89.65517241,2,"TrialProc","Nontarget",196131,1,893,2,2
102,"red",59,81.25,89.83050847,2,"TrialProc","Nontarget",198722,1,964,2,2
102,"red",60,81.25,90,2,"TrialProc","Nontarget",201146,1,858,2,2
102,"red",61,81.25,90.16393443,2,"TrialProc","Nontarget",203587,1,778,2,2
102,"red",62,81.25,90.32258065,2,"TrialProc","Nontarget",206312,1,968,2,2
102,"red",63,81.25,90.47619048,2,"TrialProc","Nontarget",208936,1,1076,2,2
102,"red",64,81.25,90.625,2,"TrialProc","Nontarget",211694,1,1312,2,2
130,"blue",1,0,100,2,"TrialProc","Nontarget",198429,1,410,3,2
130,"blue",2,0,100,2,"TrialProc","Nontarget",202211,1,666,3,2
130,"blue",3,0,100,2,"TrialProc","Nontarget",205644,1,566,3,2
130,"blue",4,0,100,2,"TrialProc","Nontarget",209410,1,805,3,2
130,"blue",5,0,100,2,"TrialProc","Nontarget",212709,1,571,3,2
130,"blue",6,0,100,2,"TrialProc","Nontarget",216925,1,1270,3,2
130,"blue",7,0,100,2,"TrialProc","Nontarget",220207,1,1028,3,2
130,"blue",8,0,87.5,2,"TrialProc","Lure",224206,0,0,3,NA
130,"blue",9,0,88.88888889,2,"TrialProc","Nontarget",227489,1,1249,3,2
130,"blue",10,0,90,2,"TrialProc","Nontarget",230971,1,1199,3,2
130,"blue",11,0,90.90909091,2,"TrialProc","Nontarget",234071,1,776,3,2
130,"blue",12,100,91.66666667,1,"TrialProc","Target",237653,1,831,3,1
130,"blue",13,100,84.61538462,2,"TrialProc","Nontarget",241852,0,0,3,NA
130,"blue",14,100,85.71428571,1,"TrialProc","Target",244852,1,972,3,1
130,"blue",15,100,86.66666667,2,"TrialProc","Nontarget",248084,1,688,3,2
130,"blue",16,100,87.5,1,"TrialProc","Target",251417,1,509,3,1
130,"blue",17,100,88.23529412,2,"TrialProc","Nontarget",255200,1,759,3,2
130,"blue",18,100,88.88888889,2,"TrialProc","Nontarget",259015,1,1055,3,2
130,"blue",19,100,89.47368421,2,"TrialProc","Lure",262181,1,697,3,2
130,"blue",20,100,90,2,"TrialProc","Lure",265847,1,822,3,2
130,"blue",21,100,90.47619048,1,"TrialProc","Target",269113,1,544,3,1
130,"blue",22,100,90.90909091,2,"TrialProc","Nontarget",272628,1,521,3,2
130,"blue",23,100,91.30434783,2,"TrialProc","Nontarget",276144,1,513,3,2
130,"blue",24,100,91.66666667,2,"TrialProc","Nontarget",279694,1,546,3,2
130,"blue",25,100,92,2,"TrialProc","Nontarget",283326,1,652,3,2
130,"blue",26,100,92.30769231,2,"TrialProc","Nontarget",286725,1,522,3,2
130,"blue",27,100,92.59259259,1,"TrialProc","Target",290241,1,503,3,1
130,"blue",28,100,92.85714286,2,"TrialProc","Nontarget",294040,1,765,3,2
130,"blue",29,100,93.10344828,1,"TrialProc","Target",297506,1,692,3,1
130,"blue",30,100,93.33333333,1,"TrialProc","Target",301039,1,692,3,1
130,"blue",31,100,93.5483871,2,"TrialProc","Nontarget",304588,1,716,3,2
130,"blue",32,100,93.75,2,"TrialProc","Nontarget",308087,1,679,3,2
130,"blue",33,100,93.93939394,2,"TrialProc","Nontarget",311603,1,667,3,2
130,"blue",34,100,94.11764706,1,"TrialProc","Target",315469,1,1008,3,1
130,"blue",35,100,94.28571429,2,"TrialProc","Nontarget",318501,1,525,3,2
130,"blue",36,100,94.44444444,2,"TrialProc","Nontarget",322034,1,541,3,2
130,"blue",37,100,94.59459459,2,"TrialProc","Nontarget",325650,1,637,3,2
130,"blue",38,100,94.73684211,2,"TrialProc","Nontarget",329332,1,775,3,2
130,"blue",39,100,94.87179487,1,"TrialProc","Target",332631,1,537,3,1
130,"blue",40,100,95,2,"TrialProc","Nontarget",336347,1,724,3,2
130,"blue",41,100,95.12195122,1,"TrialProc","Target",339846,1,698,3,1
130,"blue",42,100,95.23809524,1,"TrialProc","Target",343579,1,906,3,1
130,"blue",43,100,95.34883721,2,"TrialProc","Nontarget",347095,1,894,3,2
130,"blue",44,100,95.45454545,2,"TrialProc","Nontarget",350327,1,591,3,2
130,"blue",45,100,95.55555556,1,"TrialProc","Target",353810,1,542,3,1
130,"blue",46,100,95.65217391,2,"TrialProc","Nontarget",357309,1,510,3,2
130,"blue",47,100,95.74468085,2,"TrialProc","Nontarget",360825,1,490,3,2
130,"blue",48,100,95.83333333,2,"TrialProc","Nontarget",364507,1,625,3,2
130,"blue",49,100,95.91836735,2,"TrialProc","Nontarget",368506,1,1103,3,2
130,"blue",50,100,96,1,"TrialProc","Target",371606,1,673,3,1
130,"blue",51,100,96.07843137,2,"TrialProc","Nontarget",375221,1,757,3,2
130,"blue",52,100,96.15384615,1,"TrialProc","Target",379071,1,1071,3,1
130,"blue",53,100,96.22641509,2,"TrialProc","Nontarget",382420,1,890,3,2
130,"blue",54,100,96.2962963,2,"TrialProc","Nontarget",385752,1,693,3,2
130,"blue",55,100,96.36363636,2,"TrialProc","Lure",389835,1,1259,3,2
130,"blue",56,100,96.42857143,2,"TrialProc","Nontarget",393084,1,989,3,2
130,"blue",57,100,96.49122807,2,"TrialProc","Nontarget",396200,1,563,3,2
130,"blue",58,100,96.55172414,2,"TrialProc","Nontarget",399699,1,530,3,2
130,"blue",59,100,96.61016949,1,"TrialProc","Target",403382,1,683,3,1
130,"blue",60,100,96.66666667,1,"TrialProc","Target",407236,1,997,3,1
130,"blue",61,100,96.72131148,2,"TrialProc","Nontarget",410263,1,490,3,2
130,"blue",62,100,96.77419355,2,"TrialProc","Nontarget",414546,1,1252,3,2
130,"blue",63,100,96.82539683,2,"TrialProc","Lure",417712,1,875,3,2
130,"blue",64,100,96.875,2,"TrialProc","Nontarget",420878,1,527,3,2
135,"purple",1,0,100,2,"TrialProc","Nontarget",67396,1,919,4,2
135,"purple",2,0,100,2,"TrialProc","Nontarget",70555,1,553,4,2
135,"purple",3,0,100,2,"TrialProc","Nontarget",73982,1,458,4,2
135,"purple",4,0,100,2,"TrialProc","Nontarget",77626,1,579,4,2
135,"purple",5,0,100,2,"TrialProc","Nontarget",81638,1,1074,4,2
135,"purple",6,0,100,2,"TrialProc","Nontarget",85182,1,1098,4,2
135,"purple",7,100,100,1,"TrialProc","Target",88893,1,1288,4,1
135,"purple",8,100,100,2,"TrialProc","Nontarget",92003,1,875,4,2
135,"purple",9,50,88.88888889,1,"TrialProc","Target",95480,0,831,4,2
135,"purple",10,50,90,2,"TrialProc","Nontarget",98723,1,554,4,2
135,"purple",11,33.33333333,81.81818182,1,"TrialProc","Target",103186,0,0,4,NA
135,"purple",12,33.33333333,83.33333333,2,"TrialProc","Nontarget",105794,1,592,4,2
135,"purple",13,50,84.61538462,1,"TrialProc","Target",109656,1,932,4,1
135,"purple",14,50,85.71428571,2,"TrialProc","Nontarget",112615,1,383,4,2
135,"purple",15,50,86.66666667,2,"TrialProc","Nontarget",116276,1,517,4,2
135,"purple",16,50,87.5,2,"TrialProc","Nontarget",120003,1,730,4,2
135,"purple",17,50,88.23529412,2,"TrialProc","Nontarget",123531,1,751,4,2
135,"purple",18,50,83.33333333,2,"TrialProc","Nontarget",127793,0,0,4,NA
135,"purple",19,50,84.21052632,2,"TrialProc","Nontarget",130334,1,519,4,2
135,"purple",20,50,85,2,"TrialProc","Lure",134664,1,1332,4,2
135,"purple",21,50,85.71428571,2,"TrialProc","Nontarget",137523,1,681,4,2
135,"purple",22,40,81.81818182,1,"TrialProc","Target",140949,0,592,4,2
135,"purple",23,40,82.60869565,2,"TrialProc","Nontarget",144577,1,689,4,2
135,"purple",24,40,83.33333333,2,"TrialProc","Nontarget",148054,1,642,4,2
135,"purple",25,40,84,2,"TrialProc","Nontarget",151498,1,555,4,2
135,"purple",26,40,84.61538462,2,"TrialProc","Nontarget",155142,1,682,4,2
135,"purple",27,40,85.18518519,2,"TrialProc","Nontarget",159020,1,1046,4,2
135,"purple",28,40,85.71428571,2,"TrialProc","Nontarget",162548,1,1067,4,2
135,"purple",29,40,86.20689655,2,"TrialProc","Nontarget",166342,1,1338,4,2
135,"purple",30,50,86.66666667,1,"TrialProc","Target",169603,1,1085,4,1
135,"purple",31,42.85714286,83.87096774,1,"TrialProc","Target",172962,0,928,4,2
135,"purple",32,42.85714286,84.375,2,"TrialProc","Nontarget",176005,1,448,4,2
135,"purple",33,42.85714286,84.84848485,2,"TrialProc","Lure",179983,1,902,4,2
135,"purple",34,42.85714286,85.29411765,2,"TrialProc","Nontarget",183260,1,653,4,2
135,"purple",35,42.85714286,85.71428571,2,"TrialProc","Nontarget",186703,1,580,4,2
135,"purple",36,42.85714286,86.11111111,2,"TrialProc","Nontarget",190180,1,537,4,2
135,"purple",37,42.85714286,86.48648649,2,"TrialProc","Nontarget",194092,1,920,4,2
135,"purple",38,37.5,84.21052632,1,"TrialProc","Target",197954,0,1257,4,2
135,"purple",39,37.5,84.61538462,2,"TrialProc","Nontarget",201180,1,954,4,2
135,"purple",40,37.5,85,2,"TrialProc","Nontarget",204390,1,643,4,2
135,"purple",41,44.44444444,85.36585366,1,"TrialProc","Target",208736,1,1452,4,1
135,"purple",42,40,83.33333333,1,"TrialProc","Target",211645,0,850,4,2
135,"purple",43,40,83.72093023,2,"TrialProc","Nontarget",214938,1,622,4,2
135,"purple",44,40,81.81818182,2,"TrialProc","Nontarget",218766,0,931,4,1
135,"purple",45,40,82.22222222,2,"TrialProc","Nontarget",222059,1,709,4,2
135,"purple",46,40,82.60869565,2,"TrialProc","Nontarget",225419,1,542,4,2
135,"purple",47,45.45454545,82.9787234,1,"TrialProc","Target",229381,1,980,4,1
135,"purple",48,45.45454545,83.33333333,2,"TrialProc","Nontarget",232591,1,678,4,2
135,"purple",49,41.66666667,81.63265306,1,"TrialProc","Target",236151,0,731,4,2
135,"purple",50,41.66666667,80,2,"TrialProc","Lure",239913,0,970,4,1
135,"purple",51,41.66666667,80.39215686,2,"TrialProc","Nontarget",242922,1,456,4,2
135,"purple",52,38.46153846,78.84615385,1,"TrialProc","Target",246499,0,516,4,2
135,"purple",53,38.46153846,79.24528302,2,"TrialProc","Nontarget",250428,1,929,4,2
135,"purple",54,38.46153846,79.62962963,2,"TrialProc","Nontarget",253754,1,749,4,2
135,"purple",55,38.46153846,78.18181818,2,"TrialProc","Nontarget",257984,0,1467,4,1
135,"purple",56,42.85714286,78.57142857,1,"TrialProc","Target",261076,1,1037,4,1
135,"purple",57,42.85714286,78.94736842,2,"TrialProc","Nontarget",263935,1,382,4,2
135,"purple",58,42.85714286,79.31034483,2,"TrialProc","Nontarget",267545,1,473,4,2
135,"purple",59,42.85714286,79.66101695,2,"TrialProc","Nontarget",271407,1,808,4,2
135,"purple",60,46.66666667,80,1,"TrialProc","Target",274667,1,546,4,1
135,"purple",61,50,80.32786885,1,"TrialProc","Target",278729,1,1096,4,1
135,"purple",62,50,80.64516129,2,"TrialProc","Nontarget",282089,1,938,4,2
135,"purple",63,50,80.95238095,2,"TrialProc","Nontarget",285432,1,751,4,2
135,"purple",64,50,81.25,2,"TrialProc","Nontarget",289277,1,1075,4,2
101,"black",1,0,100,2,"TrialProc","Nontarget",53959,1,944,1,2
101,"black",2,0,100,2,"TrialProc","Nontarget",56958,1,1412,1,2
101,"black",3,0,100,2,"TrialProc","Nontarget",58725,1,651,1,2
101,"black",4,0,100,2,"TrialProc","Lure",61274,1,670,1,2
101,"black",5,100,100,1,"TrialProc","Target",63690,1,544,1,1
101,"black",6,100,100,2,"TrialProc","Nontarget",66123,1,447,1,2
101,"black",7,100,100,2,"TrialProc","Lure",68622,1,406,1,2
101,"black",8,100,100,2,"TrialProc","Nontarget",71188,1,458,1,2
101,"black",9,100,100,2,"TrialProc","Nontarget",73638,1,377,1,2
101,"black",10,100,100,1,"TrialProc","Target",76187,1,397,1,1
101,"black",11,100,100,2,"TrialProc","Nontarget",78737,1,428,1,2
101,"black",12,100,100,2,"TrialProc","Nontarget",81269,1,430,1,2
101,"black",13,100,100,1,"TrialProc","Target",83802,1,434,1,1
101,"black",14,100,100,2,"TrialProc","Nontarget",86285,1,390,1,2
101,"black",15,100,93.33333333,2,"TrialProc","Nontarget",88801,0,387,1,1
101,"black",16,100,93.75,2,"TrialProc","Nontarget",91334,1,381,1,2
101,"black",17,100,94.11764706,1,"TrialProc","Target",93966,1,474,1,1
101,"black",18,100,94.44444444,2,"TrialProc","Nontarget",96416,1,400,1,2
101,"black",19,100,94.73684211,2,"TrialProc","Lure",98982,1,437,1,2
101,"black",20,100,95,2,"TrialProc","Nontarget",101431,1,353,1,2
101,"black",21,100,95.23809524,2,"TrialProc","Lure",103997,1,387,1,2
101,"black",22,100,95.45454545,2,"TrialProc","Nontarget",106547,1,410,1,2
101,"black",23,100,95.65217391,2,"TrialProc","Nontarget",109046,1,377,1,2
101,"black",24,100,95.83333333,2,"TrialProc","Nontarget",111662,1,458,1,2
101,"black",25,100,96,2,"TrialProc","Nontarget",114112,1,386,1,2
101,"black",26,100,96.15384615,2,"TrialProc","Lure",116695,1,428,1,2
101,"black",27,100,96.2962963,1,"TrialProc","Target",119344,1,549,1,1
101,"black",28,100,96.42857143,2,"TrialProc","Nontarget",121777,1,448,1,2
101,"black",29,100,96.55172414,2,"TrialProc","Nontarget",124276,1,419,1,2
101,"black",30,100,96.66666667,1,"TrialProc","Target",126925,1,530,1,1
101,"black",31,100,96.77419355,2,"TrialProc","Nontarget",129292,1,365,1,2
101,"black",32,100,96.875,2,"TrialProc","Nontarget",131874,1,406,1,2
101,"black",33,100,96.96969697,1,"TrialProc","Target",134524,1,538,1,1
101,"black",34,100,97.05882353,2,"TrialProc","Nontarget",136923,1,398,1,2
101,"black",35,100,97.14285714,2,"TrialProc","Nontarget",139489,1,435,1,2
101,"black",36,100,97.22222222,2,"TrialProc","Nontarget",141972,1,389,1,2
101,"black",37,100,97.2972973,1,"TrialProc","Target",144588,1,466,1,1
101,"black",38,100,97.36842105,2,"TrialProc","Nontarget",147204,1,548,1,2
101,"black",39,100,97.43589744,1,"TrialProc","Target",149654,1,469,1,1
101,"black",40,100,97.5,2,"TrialProc","Nontarget",152020,1,301,1,2
101,"black",41,100,97.56097561,1,"TrialProc","Target",154802,1,554,1,1
101,"black",42,100,97.61904762,2,"TrialProc","Nontarget",157102,1,320,1,2
101,"black",43,100,97.6744186,1,"TrialProc","Target",159851,1,532,1,1
101,"black",44,100,97.72727273,2,"TrialProc","Nontarget",162151,1,302,1,2
101,"black",45,100,97.77777778,2,"TrialProc","Nontarget",164750,1,363,1,2
101,"black",46,100,97.82608696,1,"TrialProc","Target",167283,1,365,1,1
101,"black",47,100,97.87234043,2,"TrialProc","Nontarget",169732,1,270,1,2
101,"black",48,100,97.91666667,2,"TrialProc","Nontarget",172348,1,348,1,2
101,"black",49,100,97.95918367,1,"TrialProc","Target",174881,1,346,1,1
101,"black",50,100,98,2,"TrialProc","Nontarget",177997,1,937,1,2
101,"black",51,100,98.03921569,1,"TrialProc","Target",180097,1,499,1,1
101,"black",52,100,98.07692308,2,"TrialProc","Nontarget",182563,1,429,1,2
101,"black",53,100,98.11320755,2,"TrialProc","Lure",185012,1,340,1,2
101,"black",54,100,98.14814815,2,"TrialProc","Nontarget",187545,1,344,1,2
101,"black",55,100,98.18181818,2,"TrialProc","Lure",190061,1,335,1,2
101,"black",56,100,98.21428571,2,"TrialProc","Nontarget",192744,1,476,1,2
101,"black",57,100,98.24561404,2,"TrialProc","Nontarget",195160,1,374,1,2
101,"black",58,100,98.27586207,2,"TrialProc","Nontarget",197643,1,333,1,2
101,"black",59,100,98.30508475,1,"TrialProc","Target",200175,1,336,1,1
101,"black",60,100,98.33333333,2,"TrialProc","Nontarget",202608,1,230,1,2
101,"black",61,100,98.36065574,2,"TrialProc","Nontarget",205224,1,322,1,2
101,"black",62,100,98.38709677,2,"TrialProc","Nontarget",207757,1,336,1,2
101,"black",63,100,98.41269841,2,"TrialProc","Lure",210323,1,374,1,2
101,"black",64,100,98.4375,1,"TrialProc","Target",212822,1,350,1,1
101,"blue",1,0,100,2,"TrialProc","Nontarget",37185,1,711,3,2
101,"blue",2,0,100,2,"TrialProc","Nontarget",39567,1,560,3,2
101,"blue",3,0,100,2,"TrialProc","Nontarget",42517,1,976,3,2
101,"blue",4,0,75,2,"TrialProc","Nontarget",45566,0,0,3,NA
101,"blue",5,0,80,2,"TrialProc","Nontarget",47166,1,576,3,2
101,"blue",6,0,83.33333333,2,"TrialProc","Nontarget",50049,1,938,3,2
101,"blue",7,0,85.71428571,2,"TrialProc","Nontarget",52364,1,729,3,2
101,"blue",8,0,87.5,2,"TrialProc","Nontarget",54847,1,689,3,2
101,"blue",9,100,88.88888889,1,"TrialProc","Target",57913,1,1233,3,1
101,"blue",10,100,90,2,"TrialProc","Nontarget",59913,1,698,3,2
101,"blue",11,100,90.90909091,2,"TrialProc","Nontarget",62279,1,538,3,2
101,"blue",12,100,91.66666667,2,"TrialProc","Nontarget",64778,1,510,3,2
101,"blue",13,100,92.30769231,1,"TrialProc","Target",67194,1,400,3,1
101,"blue",14,100,92.85714286,2,"TrialProc","Lure",70544,1,1211,3,2
101,"blue",15,100,93.33333333,1,"TrialProc","Target",72810,1,959,3,1
101,"blue",16,100,93.75,2,"TrialProc","Lure",75659,1,1287,3,2
101,"blue",17,100,94.11764706,2,"TrialProc","Nontarget",77909,1,1007,3,2
101,"blue",18,100,94.44444444,2,"TrialProc","Nontarget",79925,1,512,3,2
101,"blue",19,100,94.73684211,2,"TrialProc","Nontarget",82491,1,538,3,2
101,"blue",20,100,95,2,"TrialProc","Nontarget",85040,1,562,3,2
101,"blue",21,100,95.23809524,2,"TrialProc","Nontarget",87506,1,503,3,2
101,"blue",22,100,95.45454545,2,"TrialProc","Nontarget",90056,1,506,3,2
101,"blue",23,100,95.65217391,2,"TrialProc","Lure",92988,1,915,3,2
101,"blue",24,100,95.83333333,1,"TrialProc","Target",95821,1,1211,3,1
101,"blue",25,100,92,2,"TrialProc","Lure",98521,0,1395,3,1
101,"blue",26,100,92.30769231,2,"TrialProc","Nontarget",100403,1,754,3,2
101,"blue",27,100,92.59259259,2,"TrialProc","Nontarget",102736,1,545,3,2
101,"blue",28,100,92.85714286,2,"TrialProc","Nontarget",105219,1,503,3,2
101,"blue",29,100,93.10344828,2,"TrialProc","Nontarget",107885,1,627,3,2
101,"blue",30,100,93.33333333,2,"TrialProc","Nontarget",110318,1,535,3,2
101,"blue",31,100,93.5483871,2,"TrialProc","Nontarget",113101,1,790,3,2
101,"blue",32,80,90.625,1,"TrialProc","Target",116116,0,1279,3,2
101,"blue",33,83.33333333,90.90909091,1,"TrialProc","Target",118099,1,729,3,1
101,"blue",34,83.33333333,91.17647059,2,"TrialProc","Nontarget",120615,1,717,3,2
101,"blue",35,83.33333333,91.42857143,2,"TrialProc","Nontarget",122915,1,482,3,2
101,"blue",36,83.33333333,91.66666667,2,"TrialProc","Nontarget",125481,1,527,3,2
101,"blue",37,83.33333333,91.89189189,2,"TrialProc","Nontarget",128030,1,548,3,2
101,"blue",38,83.33333333,92.10526316,2,"TrialProc","Nontarget",130646,1,629,3,2
101,"blue",39,83.33333333,92.30769231,2,"TrialProc","Nontarget",133279,1,740,3,2
101,"blue",40,71.42857143,90,1,"TrialProc","Target",136095,0,1024,3,2
101,"blue",41,75,90.24390244,1,"TrialProc","Target",138795,1,1212,3,1
101,"blue",42,77.77777778,90.47619048,1,"TrialProc","Target",140928,1,823,3,1
101,"blue",43,70,88.37209302,1,"TrialProc","Target",143427,0,790,3,2
101,"blue",44,70,86.36363636,2,"TrialProc","Nontarget",146093,0,929,3,1
101,"blue",45,72.72727273,86.66666667,1,"TrialProc","Target",148542,1,846,3,1
101,"blue",46,72.72727273,86.95652174,2,"TrialProc","Nontarget",150775,1,546,3,2
101,"blue",47,72.72727273,87.23404255,2,"TrialProc","Nontarget",153324,1,562,3,2
101,"blue",48,72.72727273,87.5,2,"TrialProc","Nontarget",155774,1,489,3,2
101,"blue",49,75,87.75510204,1,"TrialProc","Target",158223,1,390,3,1
101,"blue",50,75,88,2,"TrialProc","Nontarget",161189,1,839,3,2
101,"blue",51,75,88.23529412,2,"TrialProc","Nontarget",163439,1,574,3,2
101,"blue",52,75,88.46153846,2,"TrialProc","Nontarget",165955,1,561,3,2
101,"blue",53,76.92307692,88.67924528,1,"TrialProc","Target",168371,1,459,3,1
101,"blue",54,78.57142857,88.88888889,1,"TrialProc","Target",171054,1,618,3,1
101,"blue",55,78.57142857,89.09090909,2,"TrialProc","Nontarget",173570,1,610,3,2
101,"blue",56,78.57142857,89.28571429,2,"TrialProc","Nontarget",175986,1,489,3,2
101,"blue",57,78.57142857,89.47368421,2,"TrialProc","Nontarget",178535,1,520,3,2
101,"blue",58,80,89.65517241,1,"TrialProc","Target",181268,1,720,3,1
101,"blue",59,80,89.83050847,2,"TrialProc","Nontarget",183667,1,587,3,2
101,"blue",60,80,90,2,"TrialProc","Nontarget",186817,1,1195,3,2
101,"blue",61,80,88.52459016,2,"TrialProc","Nontarget",189383,0,1241,3,1
101,"blue",62,80,88.70967742,2,"TrialProc","Lure",191366,1,697,3,2
101,"blue",63,81.25,88.88888889,1,"TrialProc","Target",194066,1,861,3,1
101,"blue",64,81.25,89.0625,2,"TrialProc","Nontarget",196415,1,677,3,2
101,"brown",1,0,100,2,"TrialProc","Nontarget",69172,1,567,6,2
101,"brown",2,0,100,2,"TrialProc","Nontarget",71504,1,367,6,2
101,"brown",3,0,100,2,"TrialProc","Nontarget",74020,1,343,6,2
101,"brown",4,0,100,2,"TrialProc","Nontarget",76536,1,341,6,2
101,"brown",5,0,100,2,"TrialProc","Nontarget",79169,1,450,6,2
101,"brown",6,0,100,2,"TrialProc","Nontarget",81735,1,496,6,2
101,"brown",7,0,100,2,"TrialProc","Nontarget",84301,1,528,6,2
101,"brown",8,0,100,2,"TrialProc","Nontarget",86917,1,610,6,2
101,"brown",9,0,100,2,"TrialProc","Nontarget",89950,1,1110,6,2
101,"brown",10,0,100,2,"TrialProc","Nontarget",91966,1,608,6,2
101,"brown",11,0,100,2,"TrialProc","Nontarget",94616,1,739,6,2
101,"brown",12,0,100,2,"TrialProc","Nontarget",97015,1,607,6,2
101,"brown",13,100,100,1,"TrialProc","Target",99814,1,881,6,1
101,"brown",14,100,100,2,"TrialProc","Nontarget",102197,1,739,6,2
101,"brown",15,100,100,1,"TrialProc","Target",104780,1,807,6,1
101,"brown",16,100,100,2,"TrialProc","Nontarget",107063,1,556,6,2
101,"brown",17,100,100,2,"TrialProc","Nontarget",109562,1,531,6,2
101,"brown",18,100,100,2,"TrialProc","Nontarget",112112,1,553,6,2
101,"brown",19,100,100,2,"TrialProc","Nontarget",114661,1,577,6,2
101,"brown",20,100,100,1,"TrialProc","Target",117110,1,498,6,1
101,"brown",21,100,100,2,"TrialProc","Nontarget",119976,1,830,6,2
101,"brown",22,75,95.45454545,1,"TrialProc","Target",122809,0,1133,6,2
101,"brown",23,75,95.65217391,2,"TrialProc","Nontarget",124792,1,592,6,2
101,"brown",24,80,95.83333333,1,"TrialProc","Target",127525,1,779,6,1
101,"brown",25,80,96,2,"TrialProc","Nontarget",129791,1,504,6,2
101,"brown",26,80,96.15384615,2,"TrialProc","Nontarget",132890,1,1063,6,2
101,"brown",27,66.66666667,92.59259259,1,"TrialProc","Target",135206,0,851,6,2
101,"brown",28,66.66666667,92.85714286,2,"TrialProc","Nontarget",137372,1,474,6,2
101,"brown",29,57.14285714,89.65517241,1,"TrialProc","Target",140122,0,675,6,2
101,"brown",30,57.14285714,90,2,"TrialProc","Nontarget",142621,1,647,6,2
101,"brown",31,62.5,90.32258065,1,"TrialProc","Target",145071,1,570,6,1
101,"brown",32,62.5,90.625,2,"TrialProc","Nontarget",147670,1,634,6,2
101,"brown",33,62.5,90.90909091,2,"TrialProc","Nontarget",150170,1,593,6,2
101,"brown",34,62.5,88.23529412,2,"TrialProc","Nontarget",153353,0,1244,6,1
101,"brown",35,62.5,88.57142857,2,"TrialProc","Nontarget",155235,1,598,6,2
101,"brown",36,55.55555556,86.11111111,1,"TrialProc","Target",158284,0,1112,6,2
101,"brown",37,55.55555556,86.48648649,2,"TrialProc","Nontarget",160284,1,582,6,2
101,"brown",38,50,84.21052632,1,"TrialProc","Target",163233,0,1003,6,2
101,"brown",39,50,84.61538462,2,"TrialProc","Nontarget",165683,1,912,6,2
101,"brown",40,50,85,2,"TrialProc","Nontarget",167915,1,619,6,2
101,"brown",41,54.54545455,85.36585366,1,"TrialProc","Target",170465,1,630,6,1
101,"brown",42,54.54545455,85.71428571,2,"TrialProc","Nontarget",172914,1,551,6,2
101,"brown",43,54.54545455,83.72093023,2,"TrialProc","Lure",175630,0,725,6,1
101,"brown",44,54.54545455,84.09090909,2,"TrialProc","Nontarget",177980,1,540,6,2
101,"brown",45,54.54545455,84.44444444,2,"TrialProc","Nontarget",180562,1,592,6,2
101,"brown",46,54.54545455,84.7826087,2,"TrialProc","Nontarget",183145,1,644,6,2
101,"brown",47,54.54545455,82.9787234,2,"TrialProc","Nontarget",186061,0,1034,6,1
101,"brown",48,54.54545455,83.33333333,2,"TrialProc","Nontarget",188144,1,583,6,2
101,"brown",49,54.54545455,83.67346939,2,"TrialProc","Nontarget",190610,1,514,6,2
101,"brown",50,54.54545455,84,2,"TrialProc","Nontarget",193243,1,616,6,2
101,"brown",51,54.54545455,84.31372549,2,"TrialProc","Nontarget",195909,1,750,6,2
101,"brown",52,58.33333333,84.61538462,1,"TrialProc","Target",198725,1,1032,6,1
101,"brown",53,58.33333333,84.90566038,2,"TrialProc","Nontarget",200641,1,419,6,2
101,"brown",54,58.33333333,85.18518519,2,"TrialProc","Nontarget",203041,1,286,6,2
101,"brown",55,58.33333333,85.45454545,2,"TrialProc","Nontarget",205907,1,620,6,2
101,"brown",56,58.33333333,85.71428571,2,"TrialProc","Lure",208256,1,438,6,2
101,"brown",57,58.33333333,85.96491228,2,"TrialProc","Nontarget",211072,1,727,6,2
101,"brown",58,58.33333333,84.48275862,2,"TrialProc","Nontarget",214305,0,1431,6,1
101,"brown",59,61.53846154,84.74576271,1,"TrialProc","Target",216038,1,632,6,1
101,"brown",60,64.28571429,85,1,"TrialProc","Target",218404,1,465,6,1
101,"brown",61,66.66666667,85.24590164,1,"TrialProc","Target",220853,1,388,6,1
101,"brown",62,68.75,85.48387097,1,"TrialProc","Target",223419,1,420,6,1
101,"brown",63,68.75,85.71428571,2,"TrialProc","Nontarget",225985,1,446,6,2
101,"brown",64,68.75,84.375,2,"TrialProc","Lure",228935,0,863,6,1
101,"purple",1,0,100,2,"TrialProc","Nontarget",51995,1,461,4,2
101,"purple",2,0,100,2,"TrialProc","Nontarget",54577,1,505,4,2
101,"purple",3,0,100,2,"TrialProc","Nontarget",57127,1,536,4,2
101,"purple",4,0,100,2,"TrialProc","Nontarget",59643,1,527,4,2
101,"purple",5,0,100,2,"TrialProc","Nontarget",62392,1,750,4,2
101,"purple",6,0,100,2,"TrialProc","Nontarget",64908,1,736,4,2
101,"purple",7,0,100,2,"TrialProc","Nontarget",67574,1,869,4,2
101,"purple",8,0,100,2,"TrialProc","Nontarget",69857,1,617,4,2
101,"purple",9,0,100,2,"TrialProc","Nontarget",72306,1,536,4,2
101,"purple",10,0,100,2,"TrialProc","Nontarget",74756,1,455,4,2
101,"purple",11,0,100,2,"TrialProc","Lure",77572,1,747,4,2
101,"purple",12,0,100,2,"TrialProc","Lure",80721,1,1371,4,2
101,"purple",13,0,92.30769231,1,"TrialProc","Target",83304,0,1430,4,2
101,"purple",14,0,85.71428571,2,"TrialProc","Nontarget",85753,0,1354,4,1
101,"purple",15,0,86.66666667,2,"TrialProc","Nontarget",87586,1,666,4,2
101,"purple",16,0,87.5,2,"TrialProc","Nontarget",89969,1,511,4,2
101,"purple",17,0,82.35294118,1,"TrialProc","Target",92435,0,446,4,2
101,"purple",18,0,83.33333333,2,"TrialProc","Nontarget",95251,1,738,4,2
101,"purple",19,0,78.94736842,1,"TrialProc","Target",98001,0,964,4,2
101,"purple",20,0,80,2,"TrialProc","Nontarget",100483,1,904,4,2
101,"purple",21,0,80.95238095,2,"TrialProc","Nontarget",102933,1,835,4,2
101,"purple",22,0,81.81818182,2,"TrialProc","Nontarget",105732,1,1093,4,2
101,"purple",23,0,82.60869565,2,"TrialProc","Nontarget",107832,1,667,4,2
101,"purple",24,0,83.33333333,2,"TrialProc","Nontarget",110631,1,931,4,2
101,"purple",25,0,84,2,"TrialProc","Nontarget",112997,1,764,4,2
101,"purple",26,25,84.61538462,1,"TrialProc","Target",115780,1,1014,4,1
101,"purple",27,40,85.18518519,1,"TrialProc","Target",117763,1,459,4,1
101,"purple",28,40,85.71428571,2,"TrialProc","Nontarget",120396,1,575,4,2
101,"purple",29,50,86.20689655,1,"TrialProc","Target",123145,1,795,4,1
101,"purple",30,50,86.66666667,2,"TrialProc","Nontarget",125744,1,860,4,2
101,"purple",31,50,87.09677419,2,"TrialProc","Nontarget",127944,1,533,4,2
101,"purple",32,42.85714286,84.375,1,"TrialProc","Target",130776,0,839,4,2
101,"purple",33,42.85714286,84.84848485,2,"TrialProc","Nontarget",133259,1,798,4,2
101,"purple",34,42.85714286,85.29411765,2,"TrialProc","Nontarget",135825,1,838,4,2
101,"purple",35,42.85714286,85.71428571,2,"TrialProc","Nontarget",138408,1,882,4,2
101,"purple",36,42.85714286,86.11111111,2,"TrialProc","Nontarget",141057,1,991,4,2
101,"purple",37,42.85714286,83.78378378,2,"TrialProc","Lure",143424,0,838,4,1
101,"purple",38,50,84.21052632,1,"TrialProc","Target",146023,1,900,4,1
101,"purple",39,44.44444444,82.05128205,1,"TrialProc","Target",148272,0,612,4,2
101,"purple",40,44.44444444,82.5,2,"TrialProc","Nontarget",150738,1,553,4,2
101,"purple",41,44.44444444,82.92682927,2,"TrialProc","Nontarget",153488,1,767,4,2
101,"purple",42,50,83.33333333,1,"TrialProc","Target",156204,1,942,4,1
101,"purple",43,50,83.72093023,2,"TrialProc","Nontarget",158653,1,870,4,2
101,"purple",44,50,84.09090909,2,"TrialProc","Nontarget",160969,1,648,4,2
101,"purple",45,50,84.44444444,2,"TrialProc","Nontarget",163502,1,644,4,2
101,"purple",46,54.54545455,84.7826087,1,"TrialProc","Target",166269,1,891,4,1
101,"purple",47,54.54545455,85.10638298,2,"TrialProc","Nontarget",168684,1,791,4,2
101,"purple",48,50,83.33333333,1,"TrialProc","Target",170850,0,429,4,2
101,"purple",49,50,83.67346939,2,"TrialProc","Nontarget",173483,1,544,4,2
101,"purple",50,50,84,2,"TrialProc","Nontarget",176183,1,716,4,2
101,"purple",51,53.84615385,84.31372549,1,"TrialProc","Target",178632,1,642,4,1
101,"purple",52,57.14285714,84.61538462,1,"TrialProc","Target",180915,1,398,4,1
101,"purple",53,60,84.90566038,1,"TrialProc","Target",183448,1,401,4,1
101,"purple",54,60,85.18518519,2,"TrialProc","Nontarget",186114,1,527,4,2
101,"purple",55,60,85.45454545,2,"TrialProc","Nontarget",189180,1,1068,4,2
101,"purple",56,62.5,85.71428571,1,"TrialProc","Target",191879,1,1230,4,1
101,"purple",57,62.5,85.96491228,2,"TrialProc","Nontarget",193862,1,684,4,2
101,"purple",58,62.5,86.20689655,2,"TrialProc","Nontarget",196261,1,553,4,2
101,"purple",59,62.5,86.44067797,2,"TrialProc","Nontarget",198644,1,399,4,2
101,"purple",60,62.5,86.66666667,2,"TrialProc","Nontarget",201230,1,448,4,2
101,"purple",61,62.5,86.8852459,2,"TrialProc","Nontarget",203859,1,543,4,2
101,"purple",62,62.5,87.09677419,2,"TrialProc","Nontarget",206509,1,667,4,2
101,"purple",63,62.5,87.3015873,2,"TrialProc","Nontarget",209175,1,792,4,2
101,"purple",64,62.5,87.5,2,"TrialProc","Nontarget",211574,1,661,4,2
101,"red",1,0,100,2,"TrialProc","Nontarget",44086,1,632,2,2
101,"red",2,0,100,2,"TrialProc","Nontarget",46419,1,432,2,2
101,"red",3,0,100,2,"TrialProc","Nontarget",49218,1,710,2,2
101,"red",4,0,100,2,"TrialProc","Nontarget",51934,1,888,2,2
101,"red",5,0,100,2,"TrialProc","Nontarget",54067,1,491,2,2
101,"red",6,0,100,2,"TrialProc","Nontarget",56567,1,455,2,2
101,"red",7,0,100,2,"TrialProc","Nontarget",59333,1,701,2,2
101,"red",8,100,100,1,"TrialProc","Target",61715,1,560,2,1
101,"red",9,100,100,2,"TrialProc","Nontarget",64465,1,784,2,2
101,"red",10,100,100,2,"TrialProc","Nontarget",66814,1,600,2,2
101,"red",11,100,100,2,"TrialProc","Nontarget",69414,1,661,2,2
101,"red",12,100,100,1,"TrialProc","Target",71896,1,616,2,1
101,"red",13,100,100,1,"TrialProc","Target",74979,1,1172,2,1
101,"red",14,100,100,2,"TrialProc","Lure",77412,1,1067,2,2
101,"red",15,100,100,2,"TrialProc","Nontarget",79395,1,518,2,2
101,"red",16,100,100,1,"TrialProc","Target",82027,1,628,2,1
101,"red",17,100,100,2,"TrialProc","Nontarget",84677,1,747,2,2
101,"red",18,100,100,2,"TrialProc","Nontarget",87043,1,578,2,2
101,"red",19,100,100,2,"TrialProc","Nontarget",89559,1,569,2,2
101,"red",20,100,100,1,"TrialProc","Target",92158,1,632,2,1
101,"red",21,100,100,2,"TrialProc","Nontarget",94625,1,561,2,2
101,"red",22,100,95.45454545,2,"TrialProc","Lure",98090,0,0,2,NA
101,"red",23,100,95.65217391,2,"TrialProc","Nontarget",99823,1,695,2,2
101,"red",24,83.33333333,91.66666667,1,"TrialProc","Target",102456,0,797,2,2
101,"red",25,85.71428571,92,1,"TrialProc","Target",104689,1,508,2,1
101,"red",26,85.71428571,92.30769231,2,"TrialProc","Nontarget",107305,1,603,2,2
101,"red",27,85.71428571,92.59259259,2,"TrialProc","Nontarget",109971,1,732,2,2
101,"red",28,85.71428571,92.85714286,2,"TrialProc","Lure",112504,1,721,2,2
101,"red",29,85.71428571,89.65517241,2,"TrialProc","Lure",114870,0,544,2,1
101,"red",30,85.71428571,90,2,"TrialProc","Nontarget",117669,1,825,2,2
101,"red",31,87.5,90.32258065,1,"TrialProc","Target",120552,1,1187,2,1
101,"red",32,88.88888889,90.625,1,"TrialProc","Target",122718,1,813,2,1
101,"red",33,90,90.90909091,1,"TrialProc","Target",125601,1,1174,2,1
101,"red",34,90,91.17647059,2,"TrialProc","Nontarget",127434,1,486,2,2
101,"red",35,90.90909091,91.42857143,1,"TrialProc","Target",129916,1,432,2,1
101,"red",36,90.90909091,91.66666667,2,"TrialProc","Nontarget",132616,1,602,2,2
101,"red",37,90.90909091,91.89189189,2,"TrialProc","Nontarget",135215,1,662,2,2
101,"red",38,91.66666667,92.10526316,1,"TrialProc","Target",137531,1,456,2,1
101,"red",39,91.66666667,92.30769231,2,"TrialProc","Nontarget",140681,1,1065,2,2
101,"red",40,91.66666667,92.5,2,"TrialProc","Nontarget",142747,1,600,2,2
101,"red",41,91.66666667,92.68292683,2,"TrialProc","Lure",145213,1,540,2,2
101,"red",42,91.66666667,92.85714286,2,"TrialProc","Nontarget",147646,1,460,2,2
101,"red",43,91.66666667,93.02325581,2,"TrialProc","Nontarget",150262,1,552,2,2
101,"red",44,92.30769231,93.18181818,1,"TrialProc","Target",153128,1,873,2,1
101,"red",45,92.30769231,93.33333333,2,"TrialProc","Nontarget",155277,1,500,2,2
101,"red",46,92.30769231,93.47826087,2,"TrialProc","Nontarget",157877,1,572,2,2
101,"red",47,92.30769231,93.61702128,2,"TrialProc","Nontarget",160243,1,389,2,2
101,"red",48,92.85714286,93.75,1,"TrialProc","Target",162842,1,445,2,1
101,"red",49,92.85714286,93.87755102,2,"TrialProc","Nontarget",165442,1,509,2,2
101,"red",50,92.85714286,94,2,"TrialProc","Nontarget",168208,1,751,2,2
101,"red",51,93.33333333,94.11764706,1,"TrialProc","Target",170390,1,410,2,1
101,"red",52,93.33333333,94.23076923,2,"TrialProc","Nontarget",173223,1,709,2,2
101,"red",53,93.33333333,94.33962264,2,"TrialProc","Nontarget",175539,1,491,2,2
101,"red",54,93.33333333,94.44444444,2,"TrialProc","Lure",177955,1,386,2,2
101,"red",55,93.33333333,94.54545455,2,"TrialProc","Nontarget",180555,1,456,2,2
101,"red",56,93.33333333,94.64285714,2,"TrialProc","Nontarget",183071,1,458,2,2
101,"red",57,93.75,94.73684211,1,"TrialProc","Target",185670,1,513,2,1
101,"red",58,93.75,94.82758621,2,"TrialProc","Nontarget",188203,1,513,2,2
101,"red",59,93.75,94.91525424,2,"TrialProc","Nontarget",190736,1,510,2,2
101,"red",60,93.75,95,2,"TrialProc","Nontarget",193218,1,465,2,2
101,"red",61,93.75,95.08196721,2,"TrialProc","Nontarget",195718,1,434,2,2
101,"red",62,93.75,95.16129032,2,"TrialProc","Nontarget",198284,1,458,2,2
101,"red",63,93.75,95.23809524,2,"TrialProc","Nontarget",200833,1,475,2,2
101,"red",64,93.75,95.3125,2,"TrialProc","Nontarget",203316,1,429,2,2
101,"yellow",1,0,100,2,"TrialProc","Nontarget",50442,1,486,5,2
101,"yellow",2,0,100,2,"TrialProc","Nontarget",52858,1,372,5,2
101,"yellow",3,0,100,2,"TrialProc","Nontarget",55291,1,282,5,2
101,"yellow",4,0,100,2,"TrialProc","Nontarget",57973,1,437,5,2
101,"yellow",5,0,100,2,"TrialProc","Nontarget",60490,1,422,5,2
101,"yellow",6,0,100,2,"TrialProc","Nontarget",63206,1,610,5,2
101,"yellow",7,0,100,2,"TrialProc","Nontarget",65572,1,456,5,2
101,"yellow",8,0,100,2,"TrialProc","Nontarget",68254,1,596,5,2
101,"yellow",9,0,100,2,"TrialProc","Nontarget",70820,1,629,5,2
101,"yellow",10,0,100,2,"TrialProc","Nontarget",73453,1,732,5,2
101,"yellow",11,0,100,2,"TrialProc","Nontarget",75753,1,489,5,2
101,"yellow",12,0,100,2,"TrialProc","Nontarget",78335,1,550,5,2
101,"yellow",13,0,100,2,"TrialProc","Nontarget",80918,1,604,5,2
101,"yellow",14,100,100,1,"TrialProc","Target",83917,1,1088,5,1
101,"yellow",15,100,100,1,"TrialProc","Target",86117,1,762,5,1
101,"yellow",16,100,100,2,"TrialProc","Nontarget",88516,1,625,5,2
101,"yellow",17,100,100,2,"TrialProc","Nontarget",91066,1,657,5,2
101,"yellow",18,100,94.44444444,2,"TrialProc","Nontarget",94249,0,1328,5,1
101,"yellow",19,100,89.47368421,2,"TrialProc","Lure",96398,0,953,5,1
101,"yellow",20,100,90,2,"TrialProc","Nontarget",98697,1,726,5,2
101,"yellow",21,100,90.47619048,1,"TrialProc","Target",101630,1,1139,5,1
101,"yellow",22,75,86.36363636,1,"TrialProc","Target",103880,0,867,5,2
101,"yellow",23,80,86.95652174,1,"TrialProc","Target",106279,1,743,5,1
101,"yellow",24,80,87.5,2,"TrialProc","Nontarget",108595,1,527,5,2
101,"yellow",25,66.66666667,84,1,"TrialProc","Target",111178,0,575,5,2
101,"yellow",26,66.66666667,84.61538462,2,"TrialProc","Nontarget",113611,1,489,5,2
101,"yellow",27,66.66666667,85.18518519,2,"TrialProc","Nontarget",116194,1,554,5,2
101,"yellow",28,66.66666667,85.71428571,2,"TrialProc","Nontarget",118909,1,742,5,2
101,"yellow",29,71.42857143,86.20689655,1,"TrialProc","Target",121592,1,900,5,1
101,"yellow",30,75,86.66666667,1,"TrialProc","Target",123908,1,689,5,1
101,"yellow",31,75,87.09677419,2,"TrialProc","Nontarget",126374,1,633,5,2
101,"yellow",32,75,87.5,2,"TrialProc","Nontarget",128757,1,481,5,2
101,"yellow",33,75,87.87878788,2,"TrialProc","Nontarget",131293,1,482,5,2
101,"yellow",34,75,88.23529412,2,"TrialProc","Nontarget",133906,1,574,5,2
101,"yellow",35,75,88.57142857,2,"TrialProc","Nontarget",136589,1,733,5,2
101,"yellow",36,75,88.88888889,2,"TrialProc","Nontarget",138988,1,609,5,2
101,"yellow",37,77.77777778,89.18918919,1,"TrialProc","Target",141671,1,755,5,1
101,"yellow",38,77.77777778,89.47368421,2,"TrialProc","Nontarget",144070,1,639,5,2
101,"yellow",39,77.77777778,89.74358974,2,"TrialProc","Nontarget",147186,1,1229,5,2
101,"yellow",40,77.77777778,90,2,"TrialProc","Nontarget",149302,1,825,5,2
101,"yellow",41,77.77777778,87.80487805,2,"TrialProc","Nontarget",151719,0,718,5,1
101,"yellow",42,77.77777778,88.0952381,2,"TrialProc","Nontarget",153985,1,447,5,2
101,"yellow",43,77.77777778,88.37209302,2,"TrialProc","Nontarget",156484,1,411,5,2
101,"yellow",44,70,86.36363636,1,"TrialProc","Target",159367,0,765,5,2
101,"yellow",45,70,86.66666667,2,"TrialProc","Nontarget",162033,1,899,5,2
101,"yellow",46,70,86.95652174,2,"TrialProc","Nontarget",164332,1,677,5,2
101,"yellow",47,72.72727273,87.23404255,1,"TrialProc","Target",166615,1,426,5,1
101,"yellow",48,75,87.5,1,"TrialProc","Target",169131,1,418,5,1
101,"yellow",49,75,87.75510204,2,"TrialProc","Nontarget",171664,1,413,5,2
101,"yellow",50,75,88,2,"TrialProc","Nontarget",174513,1,737,5,2
101,"yellow",51,75,88.23529412,2,"TrialProc","Nontarget",177246,1,938,5,2
101,"yellow",52,75,88.46153846,2,"TrialProc","Nontarget",179579,1,737,5,2
101,"yellow",53,69.23076923,86.79245283,1,"TrialProc","Target",182062,0,689,5,2
101,"yellow",54,69.23076923,87.03703704,2,"TrialProc","Nontarget",184561,1,674,5,2
101,"yellow",55,71.42857143,87.27272727,1,"TrialProc","Target",186827,1,409,5,1
101,"yellow",56,73.33333333,87.5,1,"TrialProc","Target",189310,1,366,5,1
101,"yellow",57,73.33333333,87.71929825,2,"TrialProc","Lure",192159,1,687,5,2
101,"yellow",58,73.33333333,87.93103448,2,"TrialProc","Nontarget",194692,1,674,5,2
101,"yellow",59,73.33333333,88.13559322,2,"TrialProc","Nontarget",197141,1,597,5,2
101,"yellow",60,73.33333333,88.33333333,2,"TrialProc","Nontarget",199541,1,470,5,2
101,"yellow",61,73.33333333,88.52459016,2,"TrialProc","Nontarget",202240,1,644,5,2
101,"yellow",62,68.75,87.09677419,1,"TrialProc","Target",205173,0,1054,5,2
101,"yellow",63,68.75,85.71428571,2,"TrialProc","Lure",207256,0,595,5,1
101,"yellow",64,68.75,85.9375,2,"TrialProc","Nontarget",210022,1,838,5,2
102,"black",1,0,0,2,"TrialProc","Nontarget",44124,0,0,1,NA
102,"black",2,0,0,2,"TrialProc","Nontarget",46632,0,0,1,NA
102,"black",3,0,0,2,"TrialProc","Nontarget",49139,0,0,1,NA
102,"black",4,0,0,2,"TrialProc","Nontarget",51647,0,0,1,NA
102,"black",5,0,20,2,"TrialProc","Lure",53903,1,1243,1,2
102,"black",6,0,16.66666667,1,"TrialProc","Target",56411,0,1223,1,2
102,"black",7,0,14.28571429,2,"TrialProc","Nontarget",59203,0,0,1,NA
102,"black",8,0,12.5,2,"TrialProc","Nontarget",61710,0,0,1,NA
102,"black",9,0,22.22222222,2,"TrialProc","Nontarget",64068,1,1352,1,2
102,"black",10,0,20,1,"TrialProc","Target",66307,0,1069,1,2
102,"black",11,0,18.18181818,2,"TrialProc","Nontarget",69249,0,0,1,NA
102,"black",12,0,25,2,"TrialProc","Lure",71339,1,1077,1,2
102,"black",13,0,23.07692308,2,"TrialProc","Nontarget",74281,0,0,1,NA
102,"black",14,0,21.42857143,2,"TrialProc","Lure",76788,0,0,1,NA
102,"black",15,0,20,2,"TrialProc","Nontarget",79296,0,0,1,NA
102,"black",16,0,25,2,"TrialProc","Lure",81419,1,1102,1,2
102,"black",17,0,23.52941176,2,"TrialProc","Nontarget",84328,0,0,1,NA
102,"black",18,0,22.22222222,2,"TrialProc","Nontarget",86835,0,0,1,NA
102,"black",19,0,21.05263158,1,"TrialProc","Target",89343,0,0,1,NA
102,"black",20,0,20,2,"TrialProc","Nontarget",91850,0,0,1,NA
102,"black",21,0,19.04761905,1,"TrialProc","Target",93940,0,1082,1,2
102,"black",22,0,18.18181818,2,"TrialProc","Nontarget",96865,0,0,1,NA
102,"black",23,0,17.39130435,2,"TrialProc","Nontarget",99373,0,0,1,NA
102,"black",24,0,16.66666667,2,"TrialProc","Nontarget",101880,0,0,1,NA
102,"black",25,0,16,1,"TrialProc","Target",103903,0,1014,1,2
102,"black",26,0,15.38461538,2,"TrialProc","Nontarget",106912,0,0,1,NA
102,"black",27,0,14.81481481,1,"TrialProc","Target",108684,0,762,1,2
102,"black",28,0,14.28571429,1,"TrialProc","Target",111944,0,0,1,NA
102,"black",29,0,13.79310345,2,"TrialProc","Nontarget",114451,0,0,1,NA
102,"black",30,0,13.33333333,2,"TrialProc","Nontarget",116959,0,0,1,NA
102,"black",31,0,12.90322581,1,"TrialProc","Target",119483,0,0,1,NA
102,"black",32,0,12.5,2,"TrialProc","Nontarget",121990,0,0,1,NA
102,"black",33,0,12.12121212,2,"TrialProc","Nontarget",124498,0,0,1,NA
102,"black",34,0,11.76470588,2,"TrialProc","Nontarget",127005,0,0,1,NA
102,"black",35,0,14.28571429,2,"TrialProc","Lure",128961,1,944,1,2
102,"black",36,0,13.88888889,1,"TrialProc","Target",131201,0,666,1,2
102,"black",37,0,13.51351351,2,"TrialProc","Nontarget",134545,0,0,1,NA
102,"black",38,0,13.15789474,1,"TrialProc","Target",136233,0,675,1,2
102,"black",39,0,12.82051282,2,"TrialProc","Nontarget",139576,0,0,1,NA
102,"black",40,0,12.5,1,"TrialProc","Target",141398,0,812,1,2
102,"black",41,0,12.19512195,2,"TrialProc","Nontarget",144608,0,0,1,NA
102,"black",42,0,11.9047619,2,"TrialProc","Lure",147116,0,0,1,NA
102,"black",43,0,13.95348837,2,"TrialProc","Lure",149122,1,988,1,2
102,"black",44,0,13.63636364,2,"TrialProc","Nontarget",152147,0,0,1,NA
102,"black",45,0,13.33333333,2,"TrialProc","Nontarget",154655,0,0,1,NA
102,"black",46,0,13.04347826,2,"TrialProc","Nontarget",157162,0,0,1,NA
102,"black",47,0,14.89361702,2,"TrialProc","Lure",159068,1,893,1,2
102,"black",48,0,14.58333333,1,"TrialProc","Target",161442,0,744,1,2
102,"black",49,0,14.28571429,2,"TrialProc","Nontarget",164718,0,0,1,NA
102,"black",50,0,14,2,"TrialProc","Nontarget",167226,0,0,1,NA
102,"black",51,0,13.7254902,1,"TrialProc","Target",168931,0,686,1,2
102,"black",52,0,13.46153846,1,"TrialProc","Target",171773,0,1003,1,2
102,"black",53,0,13.20754717,2,"TrialProc","Nontarget",174782,0,0,1,NA
102,"black",54,0,12.96296296,2,"TrialProc","Nontarget",177289,0,0,1,NA
102,"black",55,0,12.72727273,2,"TrialProc","Nontarget",179797,0,0,1,NA
102,"black",56,0,12.5,1,"TrialProc","Target",181418,0,609,1,2
102,"black",57,0,12.28070175,2,"TrialProc","Nontarget",184828,0,0,1,NA
102,"black",58,0,12.06896552,2,"TrialProc","Nontarget",187336,0,0,1,NA
102,"black",59,0,11.86440678,2,"TrialProc","Nontarget",189843,0,0,1,NA
102,"black",60,0,11.66666667,2,"TrialProc","Nontarget",192351,0,0,1,NA
102,"black",61,0,11.47540984,2,"TrialProc","Nontarget",194858,0,0,1,NA
102,"black",62,0,11.29032258,2,"TrialProc","Nontarget",197366,0,0,1,NA
102,"black",63,0,11.11111111,1,"TrialProc","Target",199138,0,759,1,2
102,"black",64,0,10.9375,2,"TrialProc","Nontarget",202398,0,0,1,NA
102,"blue",1,0,0,2,"TrialProc","Nontarget",32149,0,0,3,NA
102,"blue",2,0,0,2,"TrialProc","Nontarget",34656,0,0,3,NA
102,"blue",3,0,0,2,"TrialProc","Nontarget",37164,0,0,3,NA
102,"blue",4,0,0,2,"TrialProc","Lure",39671,0,0,3,NA
102,"blue",5,0,0,2,"TrialProc","Nontarget",42179,0,0,3,NA
102,"blue",6,0,0,2,"TrialProc","Nontarget",44686,0,0,3,NA
102,"blue",7,0,14.28571429,2,"TrialProc","Nontarget",46174,1,471,3,2
102,"blue",8,0,25,2,"TrialProc","Nontarget",48665,1,435,3,2
102,"blue",9,0,33.33333333,2,"TrialProc","Nontarget",51223,1,482,3,2
102,"blue",10,100,40,1,"TrialProc","Target",53730,1,482,3,1
102,"blue",11,100,45.45454545,2,"TrialProc","Lure",56121,1,362,3,2
102,"blue",12,100,50,2,"TrialProc","Nontarget",58762,1,475,3,2
102,"blue",13,100,53.84615385,2,"TrialProc","Nontarget",61219,1,400,3,2
102,"blue",14,100,57.14285714,2,"TrialProc","Nontarget",63693,1,354,3,2
102,"blue",15,100,60,2,"TrialProc","Nontarget",66217,1,359,3,2
102,"blue",16,50,56.25,1,"TrialProc","Target",68909,0,531,3,2
102,"blue",17,50,58.82352941,2,"TrialProc","Nontarget",71400,1,507,3,2
102,"blue",18,50,61.11111111,2,"TrialProc","Nontarget",73874,1,450,3,2
102,"blue",19,50,63.15789474,2,"TrialProc","Lure",76398,1,452,3,2
102,"blue",20,50,65,2,"TrialProc","Lure",79273,1,813,3,2
102,"blue",21,66.66666667,66.66666667,1,"TrialProc","Target",81697,1,711,3,1
102,"blue",22,66.66666667,68.18181818,2,"TrialProc","Nontarget",84171,1,659,3,2
102,"blue",23,50,65.2173913,1,"TrialProc","Target",86812,0,769,3,2
102,"blue",24,50,66.66666667,2,"TrialProc","Nontarget",89303,1,749,3,2
102,"blue",25,50,68,2,"TrialProc","Nontarget",91811,1,746,3,2
102,"blue",26,60,69.23076923,1,"TrialProc","Target",94435,1,848,3,1
102,"blue",27,60,70.37037037,2,"TrialProc","Nontarget",96809,1,711,3,2
102,"blue",28,60,71.42857143,2,"TrialProc","Nontarget",99333,1,708,3,2
102,"blue",29,60,72.4137931,2,"TrialProc","Nontarget",101824,1,670,3,2
102,"blue",30,66.66666667,73.33333333,1,"TrialProc","Target",104482,1,800,3,1
102,"blue",31,71.42857143,74.19354839,1,"TrialProc","Target",107357,1,1158,3,1
102,"blue",32,71.42857143,75,2,"TrialProc","Nontarget",109681,1,958,3,2
102,"blue",33,71.42857143,75.75757576,2,"TrialProc","Nontarget",111904,1,654,3,2
102,"blue",34,71.42857143,76.47058824,2,"TrialProc","Nontarget",114194,1,416,3,2
102,"blue",35,75,77.14285714,1,"TrialProc","Target",116802,1,504,3,1
102,"blue",36,75,77.77777778,2,"TrialProc","Nontarget",119343,1,524,3,2
102,"blue",37,77.77777778,78.37837838,1,"TrialProc","Target",122419,1,1079,3,1
102,"blue",38,77.77777778,78.94736842,2,"TrialProc","Nontarget",124609,1,739,3,2
102,"blue",39,80,79.48717949,1,"TrialProc","Target",127033,1,646,3,1
102,"blue",40,80,80,2,"TrialProc","Nontarget",129423,1,508,3,2
102,"blue",41,80,80.48780488,2,"TrialProc","Nontarget",131981,1,536,3,2
102,"blue",42,80,80.95238095,2,"TrialProc","Nontarget",134455,1,487,3,2
102,"blue",43,80,81.39534884,2,"TrialProc","Nontarget",137163,1,679,3,2
102,"blue",44,80,81.81818182,2,"TrialProc","Nontarget",139654,1,639,3,2
102,"blue",45,72.72727273,80,1,"TrialProc","Target",142395,0,859,3,2
102,"blue",46,72.72727273,80.43478261,2,"TrialProc","Nontarget",144920,1,854,3,2
102,"blue",47,75,80.85106383,1,"TrialProc","Target",147477,1,884,3,1
102,"blue",48,75,81.25,2,"TrialProc","Nontarget",149968,1,863,3,2
102,"blue",49,75,81.63265306,2,"TrialProc","Nontarget",152292,1,653,3,2
102,"blue",50,75,82,2,"TrialProc","Nontarget",154699,1,540,3,2
102,"blue",51,75,82.35294118,2,"TrialProc","Nontarget",157156,1,478,3,2
102,"blue",52,75,82.69230769,2,"TrialProc","Nontarget",159630,1,432,3,2
102,"blue",53,75,83.01886792,2,"TrialProc","Nontarget",162171,1,459,3,2
102,"blue",54,76.92307692,83.33333333,1,"TrialProc","Target",164813,1,584,3,1
102,"blue",55,76.92307692,83.63636364,2,"TrialProc","Nontarget",167370,1,633,3,2
102,"blue",56,76.92307692,83.92857143,2,"TrialProc","Nontarget",169844,1,596,3,2
102,"blue",57,71.42857143,82.45614035,1,"TrialProc","Target",172385,0,631,3,2
102,"blue",58,73.33333333,82.75862069,1,"TrialProc","Target",174976,1,714,3,1
102,"blue",59,75,83.05084746,1,"TrialProc","Target",177718,1,946,3,1
102,"blue",60,75,83.33333333,2,"TrialProc","Nontarget",180275,1,974,3,2
102,"blue",61,75,83.60655738,2,"TrialProc","Nontarget",182867,1,1049,3,2
102,"blue",62,75,83.87096774,2,"TrialProc","Nontarget",185240,1,916,3,2
102,"blue",63,75,84.12698413,2,"TrialProc","Nontarget",187714,1,884,3,2
102,"blue",64,75,84.375,2,"TrialProc","Lure",190172,1,820,3,2
102,"brown",1,0,100,2,"TrialProc","Nontarget",34883,1,353,6,2
102,"brown",2,0,100,2,"TrialProc","Nontarget",37407,1,362,6,2
102,"brown",3,0,100,2,"TrialProc","Nontarget",40015,1,465,6,2
102,"brown",4,0,100,2,"TrialProc","Nontarget",42706,1,636,6,2
102,"brown",5,0,100,2,"TrialProc","Nontarget",45147,1,551,6,2
102,"brown",6,0,100,2,"TrialProc","Nontarget",47604,1,489,6,2
102,"brown",7,0,100,2,"TrialProc","Nontarget",50480,1,842,6,2
102,"brown",8,0,100,2,"TrialProc","Nontarget",52686,1,530,6,2
102,"brown",9,0,100,2,"TrialProc","Nontarget",55194,1,532,6,2
102,"brown",10,0,100,2,"TrialProc","Nontarget",57684,1,501,6,2
102,"brown",11,0,100,2,"TrialProc","Nontarget",60276,1,570,6,2
102,"brown",12,0,100,2,"TrialProc","Nontarget",62917,1,685,6,2
102,"brown",13,0,92.30769231,1,"TrialProc","Target",65391,0,640,6,2
102,"brown",14,0,92.85714286,2,"TrialProc","Nontarget",68032,1,755,6,2
102,"brown",15,0,93.33333333,2,"TrialProc","Nontarget",70540,1,736,6,2
102,"brown",16,0,93.75,2,"TrialProc","Nontarget",73064,1,748,6,2
102,"brown",17,0,94.11764706,2,"TrialProc","Nontarget",75404,1,573,6,2
102,"brown",18,50,94.44444444,1,"TrialProc","Target",78029,1,671,6,1
102,"brown",19,50,94.73684211,2,"TrialProc","Nontarget",80419,1,540,6,2
102,"brown",20,33.33333333,90,1,"TrialProc","Target",83278,0,875,6,2
102,"brown",21,25,85.71428571,1,"TrialProc","Target",86136,0,1206,6,2
102,"brown",22,40,86.36363636,1,"TrialProc","Target",88744,1,1287,6,1
102,"brown",23,33.33333333,82.60869565,1,"TrialProc","Target",91168,0,1191,6,2
102,"brown",24,33.33333333,79.16666667,2,"TrialProc","Nontarget",93993,0,0,6,NA
102,"brown",25,33.33333333,76,2,"TrialProc","Nontarget",96501,0,0,6,NA
102,"brown",26,33.33333333,76.92307692,2,"TrialProc","Nontarget",97988,1,476,6,2
102,"brown",27,33.33333333,77.77777778,2,"TrialProc","Nontarget",100362,1,330,6,2
102,"brown",28,33.33333333,78.57142857,2,"TrialProc","Nontarget",103204,1,659,6,2
102,"brown",29,28.57142857,75.86206897,1,"TrialProc","Target",105845,0,779,6,2
102,"brown",30,28.57142857,76.66666667,2,"TrialProc","Nontarget",108436,1,843,6,2
102,"brown",31,28.57142857,77.41935484,2,"TrialProc","Nontarget",111111,1,993,6,2
102,"brown",32,28.57142857,78.125,2,"TrialProc","Nontarget",113552,1,901,6,2
102,"brown",33,28.57142857,78.78787879,2,"TrialProc","Nontarget",115708,1,535,6,2
102,"brown",34,28.57142857,79.41176471,2,"TrialProc","Nontarget",118466,1,768,6,2
102,"brown",35,25,77.14285714,1,"TrialProc","Target",120874,0,661,6,2
102,"brown",36,25,77.77777778,2,"TrialProc","Nontarget",123431,1,684,6,2
102,"brown",37,25,78.37837838,2,"TrialProc","Lure",126072,1,809,6,2
102,"brown",38,25,78.94736842,2,"TrialProc","Lure",128379,1,588,6,2
102,"brown",39,25,79.48717949,2,"TrialProc","Nontarget",130970,1,665,6,2
102,"brown",40,33.33333333,80,1,"TrialProc","Target",133562,1,737,6,1
102,"brown",41,33.33333333,80.48780488,2,"TrialProc","Nontarget",136169,1,830,6,2
102,"brown",42,33.33333333,78.57142857,2,"TrialProc","Nontarget",138526,0,660,6,1
102,"brown",43,33.33333333,79.06976744,2,"TrialProc","Nontarget",141051,1,659,6,2
102,"brown",44,33.33333333,79.54545455,2,"TrialProc","Nontarget",143458,1,548,6,2
102,"brown",45,33.33333333,80,2,"TrialProc","Lure",146099,1,670,6,2
102,"brown",46,33.33333333,80.43478261,2,"TrialProc","Nontarget",148740,1,783,6,2
102,"brown",47,33.33333333,80.85106383,2,"TrialProc","Nontarget",151348,1,872,6,2
102,"brown",48,33.33333333,81.25,2,"TrialProc","Nontarget",153872,1,880,6,2
102,"brown",49,40,81.63265306,1,"TrialProc","Target",156296,1,773,6,1
102,"brown",50,36.36363636,80,1,"TrialProc","Target",158754,0,707,6,2
102,"brown",51,36.36363636,80.39215686,2,"TrialProc","Nontarget",161144,1,569,6,2
102,"brown",52,36.36363636,80.76923077,2,"TrialProc","Nontarget",163652,1,559,6,2
102,"brown",53,36.36363636,81.13207547,2,"TrialProc","Nontarget",166460,1,842,6,2
102,"brown",54,33.33333333,79.62962963,1,"TrialProc","Target",169018,0,875,6,2
102,"brown",55,30.76923077,78.18181818,1,"TrialProc","Target",171559,0,891,6,2
102,"brown",56,30.76923077,78.57142857,2,"TrialProc","Nontarget",173982,1,787,6,2
102,"brown",57,30.76923077,78.94736842,2,"TrialProc","Nontarget",176557,1,842,6,2
102,"brown",58,35.71428571,79.31034483,1,"TrialProc","Target",179181,1,940,6,1
102,"brown",59,35.71428571,79.66101695,2,"TrialProc","Nontarget",181873,1,1107,6,2
102,"brown",60,35.71428571,80,2,"TrialProc","Nontarget",184464,1,1181,6,2
102,"brown",61,35.71428571,80.32786885,2,"TrialProc","Nontarget",187021,1,1212,6,2
102,"brown",62,40,80.64516129,1,"TrialProc","Target",188977,1,640,6,1
102,"brown",63,43.75,80.95238095,1,"TrialProc","Target",192020,1,1159,6,1
102,"brown",64,43.75,81.25,2,"TrialProc","Nontarget",194009,1,628,6,2
102,"purple",1,0,0,2,"TrialProc","Nontarget",34614,0,0,4,NA
102,"purple",2,0,0,2,"TrialProc","Nontarget",37121,0,0,4,NA
102,"purple",3,0,0,2,"TrialProc","Nontarget",39629,0,0,4,NA
102,"purple",4,0,0,2,"TrialProc","Nontarget",42136,0,0,4,NA
102,"purple",5,0,20,2,"TrialProc","Nontarget",43858,1,716,4,2
102,"purple",6,0,33.33333333,2,"TrialProc","Nontarget",45998,1,349,4,2
102,"purple",7,0,42.85714286,2,"TrialProc","Nontarget",48372,1,216,4,2
102,"purple",8,0,50,2,"TrialProc","Nontarget",50996,1,319,4,2
102,"purple",9,0,55.55555556,2,"TrialProc","Nontarget",53554,1,360,4,2
102,"purple",10,0,60,2,"TrialProc","Nontarget",56145,1,420,4,2
102,"purple",11,0,63.63636364,2,"TrialProc","Lure",58853,1,610,4,2
102,"purple",12,0,58.33333333,2,"TrialProc","Lure",61427,0,661,4,1
102,"purple",13,0,53.84615385,1,"TrialProc","Target",63801,0,502,4,2
102,"purple",14,0,57.14285714,2,"TrialProc","Nontarget",66225,1,410,4,2
102,"purple",15,0,60,2,"TrialProc","Nontarget",68682,1,336,4,2
102,"purple",16,0,62.5,2,"TrialProc","Nontarget",71156,1,291,4,2
102,"purple",17,50,64.70588235,1,"TrialProc","Target",73814,1,420,4,1
102,"purple",18,50,66.66666667,2,"TrialProc","Nontarget",76556,1,639,4,2
102,"purple",19,33.33333333,63.15789474,1,"TrialProc","Target",78930,0,493,4,2
102,"purple",20,33.33333333,65,2,"TrialProc","Nontarget",81537,1,583,4,2
102,"purple",21,33.33333333,66.66666667,2,"TrialProc","Nontarget",83995,1,517,4,2
102,"purple",22,33.33333333,68.18181818,2,"TrialProc","Nontarget",86469,1,470,4,2
102,"purple",23,33.33333333,69.56521739,2,"TrialProc","Nontarget",89077,1,551,4,2
102,"purple",24,33.33333333,70.83333333,2,"TrialProc","Nontarget",91450,1,412,4,2
102,"purple",25,33.33333333,72,2,"TrialProc","Nontarget",94192,1,643,4,2
102,"purple",26,50,73.07692308,1,"TrialProc","Target",97452,1,1382,4,1
102,"purple",27,40,70.37037037,1,"TrialProc","Target",99107,0,517,4,2
102,"purple",28,40,71.42857143,2,"TrialProc","Nontarget",101430,1,330,4,2
102,"purple",29,33.33333333,68.96551724,1,"TrialProc","Target",103921,0,299,4,2
102,"purple",30,33.33333333,70,2,"TrialProc","Nontarget",106445,1,302,4,2
102,"purple",31,33.33333333,70.96774194,2,"TrialProc","Nontarget",109036,1,377,4,2
102,"purple",32,42.85714286,71.875,1,"TrialProc","Target",111878,1,700,4,1
102,"purple",33,42.85714286,72.72727273,2,"TrialProc","Nontarget",114135,1,435,4,2
102,"purple",34,42.85714286,73.52941176,2,"TrialProc","Nontarget",116709,1,486,4,2
102,"purple",35,42.85714286,74.28571429,2,"TrialProc","Nontarget",119284,1,540,4,2
102,"purple",36,42.85714286,75,2,"TrialProc","Nontarget",121825,1,552,4,2
102,"purple",37,42.85714286,75.67567568,2,"TrialProc","Lure",124282,1,483,4,2
102,"purple",38,50,76.31578947,1,"TrialProc","Target",126940,1,632,4,1
102,"purple",39,44.44444444,74.35897436,1,"TrialProc","Target",129297,0,475,4,2
102,"purple",40,44.44444444,75,2,"TrialProc","Nontarget",132072,1,728,4,2
102,"purple",41,44.44444444,75.6097561,2,"TrialProc","Nontarget",134580,1,706,4,2
102,"purple",42,40,73.80952381,1,"TrialProc","Target",137070,0,675,4,2
102,"purple",43,40,74.41860465,2,"TrialProc","Nontarget",139578,1,654,4,2
102,"purple",44,40,75,2,"TrialProc","Nontarget",141968,1,524,4,2
102,"purple",45,40,75.55555556,2,"TrialProc","Nontarget",144459,1,486,4,2
102,"purple",46,36.36363636,73.91304348,1,"TrialProc","Target",146799,0,304,4,2
102,"purple",47,36.36363636,74.46808511,2,"TrialProc","Nontarget",149859,1,848,4,2
102,"purple",48,33.33333333,72.91666667,1,"TrialProc","Target",152048,0,522,4,2
102,"purple",49,33.33333333,73.46938776,2,"TrialProc","Nontarget",154506,1,455,4,2
102,"purple",50,33.33333333,74,2,"TrialProc","Nontarget",156880,1,304,4,2
102,"purple",51,30.76923077,72.54901961,1,"TrialProc","Target",159387,0,294,4,2
102,"purple",52,35.71428571,73.07692308,1,"TrialProc","Target",162463,1,844,4,1
102,"purple",53,40,73.58490566,1,"TrialProc","Target",164770,1,630,4,1
102,"purple",54,40,74.07407407,2,"TrialProc","Nontarget",167127,1,449,4,2
102,"purple",55,40,74.54545455,2,"TrialProc","Nontarget",169568,1,380,4,2
102,"purple",56,37.5,73.21428571,1,"TrialProc","Target",172126,0,432,4,2
102,"purple",57,37.5,73.68421053,2,"TrialProc","Nontarget",174516,1,309,4,2
102,"purple",58,37.5,74.13793103,2,"TrialProc","Nontarget",177391,1,650,4,2
102,"purple",59,37.5,74.57627119,2,"TrialProc","Nontarget",179698,1,436,4,2
102,"purple",60,37.5,75,2,"TrialProc","Nontarget",182205,1,422,4,2
102,"purple",61,37.5,75.40983607,2,"TrialProc","Nontarget",184730,1,428,4,2
102,"purple",62,37.5,74.19354839,2,"TrialProc","Nontarget",187404,0,573,4,1
102,"purple",63,37.5,74.6031746,2,"TrialProc","Nontarget",189795,1,445,4,2
102,"purple",64,37.5,75,2,"TrialProc","Nontarget",192369,1,494,4,2
102,"yellow",1,0,100,2,"TrialProc","Nontarget",54656,1,816,5,2
102,"yellow",2,0,100,2,"TrialProc","Nontarget",56745,1,393,5,2
102,"yellow",3,0,100,2,"TrialProc","Nontarget",59353,1,474,5,2
102,"yellow",4,0,100,2,"TrialProc","Nontarget",61861,1,452,5,2
102,"yellow",5,0,100,2,"TrialProc","Nontarget",64251,1,327,5,2
102,"yellow",6,0,100,2,"TrialProc","Nontarget",67059,1,612,5,2
102,"yellow",7,0,85.71428571,1,"TrialProc","Target",69450,0,467,5,2
102,"yellow",8,0,87.5,2,"TrialProc","Nontarget",71891,1,392,5,2
102,"yellow",9,0,88.88888889,2,"TrialProc","Nontarget",74381,1,360,5,2
102,"yellow",10,0,90,2,"TrialProc","Nontarget",76889,1,335,5,2
102,"yellow",11,50,90.90909091,1,"TrialProc","Target",79463,1,387,5,1
102,"yellow",12,33.33333333,83.33333333,1,"TrialProc","Target",82071,0,468,5,2
102,"yellow",13,50,84.61538462,1,"TrialProc","Target",84613,1,500,5,1
102,"yellow",14,50,85.71428571,2,"TrialProc","Nontarget",87053,1,424,5,2
102,"yellow",15,50,86.66666667,2,"TrialProc","Nontarget",89577,1,418,5,2
102,"yellow",16,50,87.5,2,"TrialProc","Nontarget",91984,1,303,5,2
102,"yellow",17,50,88.23529412,2,"TrialProc","Nontarget",94542,1,340,5,2
102,"yellow",18,50,88.88888889,2,"TrialProc","Nontarget",97450,1,722,5,2
102,"yellow",19,60,89.47368421,1,"TrialProc","Target",99674,1,421,5,1
102,"yellow",20,60,90,2,"TrialProc","Nontarget",102181,1,400,5,2
102,"yellow",21,60,90.47619048,2,"TrialProc","Nontarget",104739,1,436,5,2
102,"yellow",22,60,86.36363636,2,"TrialProc","Lure",107313,0,490,5,1
102,"yellow",23,60,86.95652174,2,"TrialProc","Nontarget",109787,1,443,5,2
102,"yellow",24,50,83.33333333,1,"TrialProc","Target",112161,0,295,5,2
102,"yellow",25,42.85714286,80,1,"TrialProc","Target",114685,0,310,5,2
102,"yellow",26,42.85714286,80.76923077,2,"TrialProc","Nontarget",117193,1,284,5,2
102,"yellow",27,37.5,77.77777778,1,"TrialProc","Target",119684,0,264,5,2
102,"yellow",28,37.5,78.57142857,2,"TrialProc","Nontarget",122542,1,616,5,2
102,"yellow",29,37.5,79.31034483,2,"TrialProc","Nontarget",125117,1,677,5,2
102,"yellow",30,37.5,80,2,"TrialProc","Nontarget",127524,1,557,5,2
102,"yellow",31,37.5,80.64516129,2,"TrialProc","Lure",130031,1,546,5,2
102,"yellow",32,37.5,81.25,2,"TrialProc","Nontarget",132522,1,500,5,2
102,"yellow",33,37.5,81.81818182,2,"TrialProc","Nontarget",134913,1,368,5,2
102,"yellow",34,37.5,82.35294118,2,"TrialProc","Nontarget",137621,1,553,5,2
102,"yellow",35,37.5,82.85714286,2,"TrialProc","Lure",140279,1,691,5,2
102,"yellow",36,33.33333333,80.55555556,1,"TrialProc","Target",143572,0,1461,5,2
102,"yellow",37,30,78.37837838,1,"TrialProc","Target",145661,0,1027,5,2
102,"yellow",38,30,78.94736842,2,"TrialProc","Nontarget",148353,1,1193,5,2
102,"yellow",39,30,79.48717949,2,"TrialProc","Nontarget",150610,1,928,5,2
102,"yellow",40,30,80,2,"TrialProc","Nontarget",152532,1,316,5,2
102,"yellow",41,30,80.48780488,2,"TrialProc","Nontarget",155056,1,317,5,2
102,"yellow",42,30,80.95238095,2,"TrialProc","Nontarget",157598,1,349,5,2
102,"yellow",43,30,81.39534884,2,"TrialProc","Nontarget",160155,1,385,5,2
102,"yellow",44,27.27272727,79.54545455,1,"TrialProc","Target",163782,0,0,5,NA
102,"yellow",45,33.33333333,80,1,"TrialProc","Target",165972,1,1169,5,1
102,"yellow",46,33.33333333,80.43478261,2,"TrialProc","Nontarget",168129,1,804,5,2
102,"yellow",47,33.33333333,80.85106383,2,"TrialProc","Nontarget",170603,1,754,5,2
102,"yellow",48,33.33333333,81.25,2,"TrialProc","Nontarget",172910,1,539,5,2
102,"yellow",49,33.33333333,81.63265306,2,"TrialProc","Nontarget",175300,1,407,5,2
102,"yellow",50,33.33333333,82,2,"TrialProc","Nontarget",178108,1,694,5,2
102,"yellow",51,30.76923077,80.39215686,1,"TrialProc","Target",180248,0,312,5,2
102,"yellow",52,30.76923077,80.76923077,2,"TrialProc","Nontarget",182923,1,464,5,2
102,"yellow",53,28.57142857,79.24528302,1,"TrialProc","Target",185999,0,1025,5,2
102,"yellow",54,28.57142857,79.62962963,2,"TrialProc","Nontarget",188256,1,757,5,2
102,"yellow",55,28.57142857,80,2,"TrialProc","Nontarget",190780,1,763,5,2
102,"yellow",56,26.66666667,78.57142857,1,"TrialProc","Target",193020,0,472,5,2
102,"yellow",57,25,77.19298246,1,"TrialProc","Target",195527,0,462,5,2
102,"yellow",58,25,77.5862069,2,"TrialProc","Nontarget",198152,1,565,5,2
102,"yellow",59,25,77.96610169,2,"TrialProc","Nontarget",200592,1,486,5,2
102,"yellow",60,25,78.33333333,2,"TrialProc","Nontarget",203418,1,789,5,2
102,"yellow",61,25,78.68852459,2,"TrialProc","Nontarget",205708,1,565,5,2
102,"yellow",62,25,79.03225806,2,"TrialProc","Nontarget",208182,1,516,5,2
102,"yellow",63,25,79.36507937,2,"TrialProc","Nontarget",210606,1,420,5,2
102,"yellow",64,25,79.6875,2,"TrialProc","Nontarget",212996,1,295,5,2
104,"black",1,0,0,2,"TrialProc","Nontarget",24813,0,896,1,1
104,"black",2,0,50,2,"TrialProc","Nontarget",27922,1,497,1,2
104,"black",3,0,66.66666667,2,"TrialProc","Nontarget",31349,1,414,1,2
104,"black",4,100,75,1,"TrialProc","Target",35043,1,592,1,1
104,"black",5,100,80,2,"TrialProc","Nontarget",38855,1,883,1,2
104,"black",6,100,83.33333333,2,"TrialProc","Nontarget",42365,1,882,1,2
104,"black",7,100,85.71428571,2,"TrialProc","Nontarget",45826,1,819,1,2
104,"black",8,100,87.5,2,"TrialProc","Lure",49487,1,956,1,2
104,"black",9,100,88.88888889,1,"TrialProc","Target",52780,1,732,1,1
104,"black",10,100,90,2,"TrialProc","Nontarget",56240,1,681,1,2
104,"black",11,100,90.90909091,2,"TrialProc","Nontarget",59767,1,697,1,2
104,"black",12,100,91.66666667,2,"TrialProc","Nontarget",63311,1,719,1,2
104,"black",13,100,92.30769231,1,"TrialProc","Target",66889,1,774,1,1
104,"black",14,100,92.85714286,2,"TrialProc","Nontarget",70617,1,974,1,2
104,"black",15,100,93.33333333,2,"TrialProc","Nontarget",73876,1,710,1,2
104,"black",16,100,93.75,1,"TrialProc","Target",77470,1,787,1,1
104,"black",17,100,94.11764706,2,"TrialProc","Nontarget",80931,1,730,1,2
104,"black",18,100,94.44444444,2,"TrialProc","Lure",84441,1,720,1,2
104,"black",19,100,94.73684211,2,"TrialProc","Nontarget",88019,1,776,1,2
104,"black",20,100,95,2,"TrialProc","Nontarget",91496,1,723,1,2
104,"black",21,100,95.23809524,2,"TrialProc","Nontarget",94939,1,636,1,2
104,"black",22,100,95.45454545,2,"TrialProc","Lure",98483,1,663,1,2
104,"black",23,100,95.65217391,2,"TrialProc","Nontarget",102011,1,669,1,2
104,"black",24,100,95.83333333,2,"TrialProc","Lure",105671,1,810,1,2
104,"black",25,100,96,2,"TrialProc","Nontarget",109032,1,647,1,2
104,"black",26,100,96.15384615,2,"TrialProc","Lure",112576,1,682,1,2
104,"black",27,100,96.2962963,2,"TrialProc","Nontarget",116153,1,738,1,2
104,"black",28,100,96.42857143,2,"TrialProc","Lure",119580,1,649,1,2
104,"black",29,100,96.55172414,2,"TrialProc","Nontarget",123140,1,691,1,2
104,"black",30,100,96.66666667,2,"TrialProc","Lure",126601,1,628,1,2
104,"black",31,100,96.77419355,1,"TrialProc","Target",130078,1,593,1,1
104,"black",32,100,96.875,2,"TrialProc","Nontarget",133739,1,726,1,2
104,"black",33,100,96.96969697,2,"TrialProc","Nontarget",137099,1,558,1,2
104,"black",34,100,97.05882353,2,"TrialProc","Nontarget",140643,1,574,1,2
104,"black",35,100,97.14285714,1,"TrialProc","Target",144889,1,1291,1,1
104,"black",36,100,97.22222222,2,"TrialProc","Nontarget",147797,1,680,1,2
104,"black",37,100,97.2972973,1,"TrialProc","Target",151475,1,834,1,1
104,"black",38,100,97.36842105,2,"TrialProc","Nontarget",154885,1,721,1,2
104,"black",39,100,97.43589744,2,"TrialProc","Nontarget",158413,1,721,1,2
104,"black",40,100,97.5,2,"TrialProc","Nontarget",161990,1,781,1,2
104,"black",41,100,97.56097561,1,"TrialProc","Target",165534,1,806,1,1
104,"black",42,100,97.61904762,2,"TrialProc","Nontarget",168877,1,617,1,2
104,"black",43,100,97.6744186,2,"TrialProc","Nontarget",172471,1,694,1,2
104,"black",44,88.88888889,95.45454545,1,"TrialProc","Target",176132,0,845,1,2
104,"black",45,88.88888889,95.55555556,2,"TrialProc","Nontarget",179726,1,931,1,2
104,"black",46,90,95.65217391,1,"TrialProc","Target",182953,1,639,1,1
104,"black",47,90.90909091,95.74468085,1,"TrialProc","Target",186614,1,781,1,1
104,"black",48,90.90909091,95.83333333,2,"TrialProc","Nontarget",190057,1,704,1,2
104,"black",49,90.90909091,95.91836735,2,"TrialProc","Nontarget",193601,1,720,1,2
104,"black",50,90.90909091,96,2,"TrialProc","Nontarget",197330,1,934,1,2
104,"black",51,90.90909091,96.07843137,2,"TrialProc","Lure",200723,1,812,1,2
104,"black",52,91.66666667,96.15384615,1,"TrialProc","Target",204166,1,734,1,1
104,"black",53,91.66666667,96.22641509,2,"TrialProc","Nontarget",207560,1,611,1,2
104,"black",54,84.61538462,94.44444444,1,"TrialProc","Target",211104,0,636,1,2
104,"black",55,85.71428571,94.54545455,1,"TrialProc","Target",214815,1,826,1,1
104,"black",56,85.71428571,94.64285714,2,"TrialProc","Nontarget",218175,1,654,1,2
104,"black",57,85.71428571,94.73684211,2,"TrialProc","Nontarget",221702,1,653,1,2
104,"black",58,86.66666667,94.82758621,1,"TrialProc","Target",225363,1,791,1,1
104,"black",59,86.66666667,94.91525424,2,"TrialProc","Nontarget",229041,1,942,1,2
104,"black",60,86.66666667,95,2,"TrialProc","Nontarget",232401,1,775,1,2
104,"black",61,87.5,95.08196721,1,"TrialProc","Target",236112,1,961,1,1
104,"black",62,87.5,95.16129032,2,"TrialProc","Nontarget",239238,1,564,1,2
104,"black",63,87.5,95.23809524,2,"TrialProc","Nontarget",242648,1,461,1,2
104,"black",64,87.5,95.3125,2,"TrialProc","Nontarget",246861,1,1157,1,2
104,"blue",1,0,100,2,"TrialProc","Nontarget",26968,1,840,3,2
104,"blue",2,0,100,2,"TrialProc","Nontarget",30261,1,602,3,2
104,"blue",3,0,100,2,"TrialProc","Nontarget",33621,1,433,3,2
104,"blue",4,0,100,2,"TrialProc","Nontarget",37249,1,534,3,2
104,"blue",5,0,100,2,"TrialProc","Nontarget",40692,1,452,3,2
104,"blue",6,0,100,2,"TrialProc","Nontarget",44220,1,461,3,2
104,"blue",7,0,100,2,"TrialProc","Nontarget",47730,1,458,3,2
104,"blue",8,0,100,2,"TrialProc","Lure",51859,1,1067,3,2
104,"blue",9,0,100,2,"TrialProc","Nontarget",55303,1,999,3,2
104,"blue",10,0,100,2,"TrialProc","Nontarget",58362,1,548,3,2
104,"blue",11,0,100,2,"TrialProc","Nontarget",62123,1,788,3,2
104,"blue",12,100,100,1,"TrialProc","Target",65483,1,628,3,1
104,"blue",13,100,100,2,"TrialProc","Nontarget",69663,1,1302,3,2
104,"blue",14,50,92.85714286,1,"TrialProc","Target",73374,0,0,3,NA
104,"blue",15,50,93.33333333,2,"TrialProc","Nontarget",76449,1,1057,3,2
104,"blue",16,33.33333333,87.5,1,"TrialProc","Target",80411,0,0,3,NA
104,"blue",17,33.33333333,88.23529412,2,"TrialProc","Nontarget",83872,1,1448,3,2
104,"blue",18,33.33333333,88.88888889,2,"TrialProc","Nontarget",86914,1,983,3,2
104,"blue",19,33.33333333,89.47368421,2,"TrialProc","Lure",90508,1,1061,3,2
104,"blue",20,33.33333333,90,2,"TrialProc","Lure",93701,1,728,3,2
104,"blue",21,25,85.71428571,1,"TrialProc","Target",97964,0,1476,3,2
104,"blue",22,25,86.36363636,2,"TrialProc","Nontarget",101307,1,1290,3,2
104,"blue",23,25,86.95652174,2,"TrialProc","Nontarget",104600,1,1065,3,2
104,"blue",24,25,87.5,2,"TrialProc","Nontarget",107526,1,471,3,2
104,"blue",25,25,88,2,"TrialProc","Nontarget",111137,1,551,3,2
104,"blue",26,25,88.46153846,2,"TrialProc","Nontarget",114747,1,635,3,2
104,"blue",27,20,85.18518519,1,"TrialProc","Target",118241,0,612,3,2
104,"blue",28,20,85.71428571,2,"TrialProc","Nontarget",121819,1,677,3,2
104,"blue",29,16.66666667,82.75862069,1,"TrialProc","Target",125312,0,647,3,2
104,"blue",30,14.28571429,80,1,"TrialProc","Target",129675,0,0,3,NA
104,"blue",31,14.28571429,80.64516129,2,"TrialProc","Nontarget",132668,1,978,3,2
104,"blue",32,14.28571429,81.25,2,"TrialProc","Nontarget",135627,1,429,3,2
104,"blue",33,14.28571429,81.81818182,2,"TrialProc","Nontarget",139689,1,984,3,2
104,"blue",34,25,82.35294118,1,"TrialProc","Target",142681,1,465,3,1
104,"blue",35,25,82.85714286,2,"TrialProc","Nontarget",146359,1,629,3,2
104,"blue",36,25,83.33333333,2,"TrialProc","Nontarget",150020,1,775,3,2
104,"blue",37,25,83.78378378,2,"TrialProc","Nontarget",153915,1,1146,3,2
104,"blue",38,25,84.21052632,2,"TrialProc","Nontarget",157342,1,1057,3,2
104,"blue",39,33.33333333,84.61538462,1,"TrialProc","Target",160718,1,915,3,1
104,"blue",40,33.33333333,85,2,"TrialProc","Nontarget",163878,1,566,3,2
104,"blue",41,40,85.36585366,1,"TrialProc","Target",167539,1,706,3,1
104,"blue",42,36.36363636,83.33333333,1,"TrialProc","Target",171651,0,1300,3,2
104,"blue",43,36.36363636,83.72093023,2,"TrialProc","Nontarget",174510,1,641,3,2
104,"blue",44,36.36363636,84.09090909,2,"TrialProc","Nontarget",178154,1,762,3,2
104,"blue",45,41.66666667,84.44444444,1,"TrialProc","Target",181848,1,947,3,1
104,"blue",46,41.66666667,84.7826087,2,"TrialProc","Nontarget",185693,1,1274,3,2
104,"blue",47,41.66666667,85.10638298,2,"TrialProc","Nontarget",188602,1,660,3,2
104,"blue",48,41.66666667,85.41666667,2,"TrialProc","Nontarget",192096,1,631,3,2
104,"blue",49,41.66666667,85.71428571,2,"TrialProc","Nontarget",195673,1,698,3,2
104,"blue",50,38.46153846,84,1,"TrialProc","Target",199100,0,606,3,2
104,"blue",51,38.46153846,84.31372549,2,"TrialProc","Nontarget",203062,1,1040,3,2
104,"blue",52,42.85714286,84.61538462,1,"TrialProc","Target",206305,1,761,3,1
104,"blue",53,42.85714286,84.90566038,2,"TrialProc","Nontarget",209916,1,836,3,2
104,"blue",54,42.85714286,85.18518519,2,"TrialProc","Nontarget",213560,1,955,3,2
104,"blue",55,42.85714286,85.45454545,2,"TrialProc","Lure",217438,1,1305,3,2
104,"blue",56,42.85714286,83.92857143,2,"TrialProc","Nontarget",221149,0,0,3,NA
104,"blue",57,42.85714286,84.21052632,2,"TrialProc","Nontarget",224325,1,1153,3,2
104,"blue",58,42.85714286,84.48275862,2,"TrialProc","Nontarget",226967,1,278,3,2
104,"blue",59,40,83.05084746,1,"TrialProc","Target",231497,0,1297,3,2
104,"blue",60,37.5,81.66666667,1,"TrialProc","Target",234673,0,953,3,2
104,"blue",61,37.5,81.96721311,2,"TrialProc","Nontarget",237665,1,424,3,2
104,"blue",62,37.5,82.25806452,2,"TrialProc","Nontarget",241460,1,695,3,2
104,"blue",63,37.5,80.95238095,2,"TrialProc","Lure",245288,0,1003,3,1
104,"blue",64,37.5,81.25,2,"TrialProc","Nontarget",248999,1,1189,3,2
104,"brown",1,0,100,2,"TrialProc","Nontarget",33762,1,1051,6,2
104,"brown",2,0,100,2,"TrialProc","Nontarget",36570,1,333,6,2
104,"brown",3,0,100,2,"TrialProc","Nontarget",40297,1,541,6,2
104,"brown",4,0,100,2,"TrialProc","Nontarget",43541,1,252,6,2
104,"brown",5,0,100,2,"TrialProc","Nontarget",46850,1,43,6,2
104,"brown",6,0,100,2,"TrialProc","Nontarget",51013,1,687,6,2
104,"brown",7,0,100,2,"TrialProc","Nontarget",54356,1,516,6,2
104,"brown",8,0,100,2,"TrialProc","Nontarget",57867,1,513,6,2
104,"brown",9,0,100,2,"TrialProc","Nontarget",61344,1,475,6,2
104,"brown",10,0,100,2,"TrialProc","Nontarget",64804,1,407,6,2
104,"brown",11,0,100,2,"TrialProc","Nontarget",68398,1,472,6,2
104,"brown",12,0,100,2,"TrialProc","Nontarget",71942,1,495,6,2
104,"brown",13,0,92.30769231,1,"TrialProc","Target",75436,0,483,6,2
104,"brown",14,0,92.85714286,2,"TrialProc","Nontarget",78813,1,343,6,2
104,"brown",15,0,93.33333333,2,"TrialProc","Nontarget",82591,1,614,6,2
104,"brown",16,0,93.75,2,"TrialProc","Nontarget",86385,1,890,6,2
104,"brown",17,0,94.11764706,2,"TrialProc","Nontarget",89679,1,654,6,2
104,"brown",18,50,94.44444444,1,"TrialProc","Target",93239,1,698,6,1
104,"brown",19,50,94.73684211,2,"TrialProc","Nontarget",96616,1,558,6,2
104,"brown",20,33.33333333,90,1,"TrialProc","Target",100009,0,432,6,2
104,"brown",21,25,85.71428571,1,"TrialProc","Target",103487,0,394,6,2
104,"brown",22,20,81.81818182,1,"TrialProc","Target",107081,0,473,6,2
104,"brown",23,16.66666667,78.26086957,1,"TrialProc","Target",110658,0,524,6,2
104,"brown",24,16.66666667,79.16666667,2,"TrialProc","Nontarget",114352,1,697,6,2
104,"brown",25,16.66666667,80,2,"TrialProc","Nontarget",117763,1,595,6,2
104,"brown",26,16.66666667,76.92307692,2,"TrialProc","Nontarget",121323,0,634,6,1
104,"brown",27,16.66666667,77.77777778,2,"TrialProc","Nontarget",124767,1,558,6,2
104,"brown",28,16.66666667,78.57142857,2,"TrialProc","Nontarget",128194,1,463,6,2
104,"brown",29,14.28571429,75.86206897,1,"TrialProc","Target",131754,0,503,6,2
104,"brown",30,14.28571429,76.66666667,2,"TrialProc","Nontarget",135248,1,468,6,2
104,"brown",31,14.28571429,77.41935484,2,"TrialProc","Nontarget",138909,1,604,6,2
104,"brown",32,14.28571429,78.125,2,"TrialProc","Nontarget",142403,1,568,6,2
104,"brown",33,14.28571429,78.78787879,2,"TrialProc","Nontarget",145930,1,581,6,2
104,"brown",34,14.28571429,76.47058824,2,"TrialProc","Nontarget",149474,0,604,6,1
104,"brown",35,12.5,74.28571429,1,"TrialProc","Target",153202,0,804,6,2
104,"brown",36,12.5,72.22222222,2,"TrialProc","Nontarget",156863,0,943,6,1
104,"brown",37,12.5,70.27027027,2,"TrialProc","Lure",160340,0,899,6,1
104,"brown",38,12.5,68.42105263,2,"TrialProc","Lure",164018,0,1055,6,1
104,"brown",39,12.5,66.66666667,2,"TrialProc","Nontarget",167896,0,1405,6,1
104,"brown",40,22.22222222,67.5,1,"TrialProc","Target",171189,1,1170,6,1
104,"brown",41,22.22222222,68.29268293,2,"TrialProc","Nontarget",173964,1,416,6,2
104,"brown",42,22.22222222,69.04761905,2,"TrialProc","Nontarget",177809,1,740,6,2
104,"brown",43,22.22222222,69.76744186,2,"TrialProc","Nontarget",181052,1,451,6,2
104,"brown",44,22.22222222,68.18181818,2,"TrialProc","Nontarget",184713,0,596,6,1
104,"brown",45,22.22222222,66.66666667,2,"TrialProc","Lure",188307,0,672,6,1
104,"brown",46,22.22222222,65.2173913,2,"TrialProc","Nontarget",191918,0,752,6,1
104,"brown",47,22.22222222,63.82978723,2,"TrialProc","Nontarget",195361,0,669,6,1
104,"brown",48,22.22222222,62.5,2,"TrialProc","Nontarget",198805,0,600,6,1
104,"brown",49,30,63.26530612,1,"TrialProc","Target",203001,1,1281,6,1
104,"brown",50,27.27272727,62,1,"TrialProc","Target",206077,0,836,6,2
104,"brown",51,27.27272727,60.78431373,2,"TrialProc","Nontarget",209604,0,846,6,1
104,"brown",52,27.27272727,59.61538462,2,"TrialProc","Nontarget",213014,0,740,6,1
104,"brown",53,27.27272727,60.37735849,2,"TrialProc","Nontarget",216608,1,817,6,2
104,"brown",54,25,59.25925926,1,"TrialProc","Target",220320,0,1011,6,2
104,"brown",55,23.07692308,58.18181818,1,"TrialProc","Target",223663,0,831,6,2
104,"brown",56,23.07692308,57.14285714,2,"TrialProc","Nontarget",227274,0,923,6,1
104,"brown",57,23.07692308,56.14035088,2,"TrialProc","Nontarget",230684,0,815,6,1
104,"brown",58,28.57142857,56.89655172,1,"TrialProc","Target",233994,1,603,6,1
104,"brown",59,28.57142857,55.93220339,2,"TrialProc","Nontarget",237638,0,730,6,1
104,"brown",60,28.57142857,55,2,"TrialProc","Nontarget",240981,0,564,6,1
104,"brown",61,28.57142857,54.09836066,2,"TrialProc","Nontarget",244876,0,935,6,1
104,"brown",62,33.33333333,54.83870968,1,"TrialProc","Target",248370,1,914,6,1
104,"brown",63,31.25,53.96825397,1,"TrialProc","Target",252215,0,1220,6,2
104,"brown",64,31.25,54.6875,2,"TrialProc","Nontarget",254990,1,466,6,2
104,"purple",1,0,100,2,"TrialProc","Nontarget",44355,1,764,4,2
104,"purple",2,0,100,2,"TrialProc","Nontarget",47515,1,402,4,2
104,"purple",3,0,100,2,"TrialProc","Nontarget",50942,1,313,4,2
104,"purple",4,0,100,2,"TrialProc","Nontarget",54486,1,336,4,2
104,"purple",5,0,100,2,"TrialProc","Nontarget",58214,1,545,4,2
104,"purple",6,0,100,2,"TrialProc","Nontarget",61724,1,545,4,2
104,"purple",7,100,100,1,"TrialProc","Target",65118,1,432,4,1
104,"purple",8,100,100,2,"TrialProc","Nontarget",68795,1,589,4,2
104,"purple",9,100,100,1,"TrialProc","Target",72540,1,806,4,1
104,"purple",10,100,100,2,"TrialProc","Nontarget",76000,1,742,4,2
104,"purple",11,100,100,1,"TrialProc","Target",80012,1,1228,4,1
104,"purple",12,100,100,2,"TrialProc","Nontarget",83623,1,1312,4,2
104,"purple",13,75,92.30769231,1,"TrialProc","Target",87334,0,0,4,NA
104,"purple",14,75,92.85714286,2,"TrialProc","Nontarget",90042,1,693,4,2
104,"purple",15,75,86.66666667,2,"TrialProc","Nontarget",94372,0,0,4,NA
104,"purple",16,75,87.5,2,"TrialProc","Nontarget",97030,1,639,4,2
104,"purple",17,75,88.23529412,2,"TrialProc","Nontarget",100875,1,964,4,2
104,"purple",18,75,88.88888889,2,"TrialProc","Nontarget",104452,1,1033,4,2
104,"purple",19,75,89.47368421,2,"TrialProc","Nontarget",107611,1,672,4,2
104,"purple",20,75,90,2,"TrialProc","Lure",111640,1,1175,4,2
104,"purple",21,75,90.47619048,2,"TrialProc","Nontarget",114699,1,712,4,2
104,"purple",22,60,86.36363636,1,"TrialProc","Target",118377,0,875,4,2
104,"purple",23,60,86.95652174,2,"TrialProc","Nontarget",121620,1,588,4,2
104,"purple",24,60,87.5,2,"TrialProc","Nontarget",125381,1,819,4,2
104,"purple",25,60,88,2,"TrialProc","Nontarget",128607,1,522,4,2
104,"purple",26,60,88.46153846,2,"TrialProc","Nontarget",132235,1,630,4,2
104,"purple",27,60,88.88888889,2,"TrialProc","Nontarget",135628,1,509,4,2
104,"purple",28,60,89.28571429,2,"TrialProc","Nontarget",139240,1,608,4,2
104,"purple",29,60,89.65517241,2,"TrialProc","Nontarget",142432,1,281,4,2
104,"purple",30,50,86.66666667,1,"TrialProc","Target",146494,0,825,4,2
104,"purple",31,42.85714286,83.87096774,1,"TrialProc","Target",149788,0,588,4,2
104,"purple",32,42.85714286,84.375,2,"TrialProc","Nontarget",153131,1,415,4,2
104,"purple",33,42.85714286,84.84848485,2,"TrialProc","Lure",157293,1,1060,4,2
104,"purple",34,42.85714286,85.29411765,2,"TrialProc","Nontarget",160419,1,665,4,2
104,"purple",35,42.85714286,85.71428571,2,"TrialProc","Nontarget",163696,1,423,4,2
104,"purple",36,42.85714286,86.11111111,2,"TrialProc","Nontarget",168092,1,1300,4,2
104,"purple",37,42.85714286,86.48648649,2,"TrialProc","Nontarget",171436,1,1125,4,2
104,"purple",38,50,86.84210526,1,"TrialProc","Target",174746,1,916,4,1
104,"purple",39,50,87.17948718,2,"TrialProc","Nontarget",178390,1,1043,4,2
104,"purple",40,50,87.5,2,"TrialProc","Nontarget",181833,1,963,4,2
104,"purple",41,55.55555556,87.80487805,1,"TrialProc","Target",185411,1,1018,4,1
104,"purple",42,50,85.71428571,1,"TrialProc","Target",188554,0,641,4,2
104,"purple",43,50,86.04651163,2,"TrialProc","Nontarget",191797,1,359,4,2
104,"purple",44,50,86.36363636,2,"TrialProc","Nontarget",195491,1,519,4,2
104,"purple",45,50,86.66666667,2,"TrialProc","Nontarget",198968,1,470,4,2
104,"purple",46,50,86.95652174,2,"TrialProc","Nontarget",202562,1,549,4,2
104,"purple",47,45.45454545,85.10638298,1,"TrialProc","Target",206106,0,579,4,2
104,"purple",48,45.45454545,85.41666667,2,"TrialProc","Nontarget",209566,1,524,4,2
104,"purple",49,41.66666667,83.67346939,1,"TrialProc","Target",213077,0,501,4,2
104,"purple",50,41.66666667,84,2,"TrialProc","Lure",216554,1,461,4,2
104,"purple",51,41.66666667,84.31372549,2,"TrialProc","Nontarget",220282,1,673,4,2
104,"purple",52,38.46153846,82.69230769,1,"TrialProc","Target",223792,0,660,4,2
104,"purple",53,38.46153846,83.01886792,2,"TrialProc","Nontarget",227370,1,722,4,2
104,"purple",54,38.46153846,83.33333333,2,"TrialProc","Nontarget",230713,1,546,4,2
104,"purple",55,38.46153846,83.63636364,2,"TrialProc","Nontarget",234157,1,474,4,2
104,"purple",56,35.71428571,82.14285714,1,"TrialProc","Target",237650,0,436,4,2
104,"purple",57,35.71428571,82.45614035,2,"TrialProc","Nontarget",241128,1,397,4,2
104,"purple",58,35.71428571,82.75862069,2,"TrialProc","Nontarget",244905,1,660,4,2
104,"purple",59,35.71428571,83.05084746,2,"TrialProc","Nontarget",248583,1,825,4,2
104,"purple",60,40,83.33333333,1,"TrialProc","Target",251943,1,661,4,1
104,"purple",61,43.75,83.60655738,1,"TrialProc","Target",255771,1,971,4,1
104,"purple",62,43.75,83.87096774,2,"TrialProc","Nontarget",258897,1,568,4,2
104,"purple",63,43.75,84.12698413,2,"TrialProc","Nontarget",262608,1,752,4,2
104,"purple",64,43.75,84.375,2,"TrialProc","Nontarget",266152,1,770,4,2
104,"red",1,0,100,2,"TrialProc","Nontarget",37334,1,619,2,2
104,"red",2,0,100,2,"TrialProc","Nontarget",40711,1,478,2,2
104,"red",3,0,100,2,"TrialProc","Nontarget",44221,1,472,2,2
104,"red",4,0,100,2,"TrialProc","Nontarget",47832,1,555,2,2
104,"red",5,0,100,2,"TrialProc","Nontarget",51376,1,570,2,2
104,"red",6,0,100,2,"TrialProc","Nontarget",54770,1,450,2,2
104,"red",7,100,100,1,"TrialProc","Target",58614,1,780,2,1
104,"red",8,100,100,2,"TrialProc","Nontarget",61924,1,577,2,2
104,"red",9,100,100,2,"TrialProc","Nontarget",65401,1,546,2,2
104,"red",10,100,100,2,"TrialProc","Nontarget",68862,1,499,2,2
104,"red",11,100,100,1,"TrialProc","Target",72389,1,500,2,1
104,"red",12,100,100,1,"TrialProc","Target",76100,1,696,2,1
104,"red",13,100,100,2,"TrialProc","Nontarget",79945,1,1031,2,2
104,"red",14,100,100,1,"TrialProc","Target",82888,1,466,2,1
104,"red",15,100,93.33333333,2,"TrialProc","Nontarget",87434,0,0,2,NA
104,"red",16,100,93.75,2,"TrialProc","Nontarget",90426,1,973,2,2
104,"red",17,100,94.11764706,2,"TrialProc","Nontarget",93402,1,432,2,2
104,"red",18,100,94.44444444,2,"TrialProc","Nontarget",96979,1,492,2,2
104,"red",19,100,94.73684211,2,"TrialProc","Nontarget",100657,1,639,2,2
104,"red",20,100,95,2,"TrialProc","Nontarget",103984,1,444,2,2
104,"red",21,100,95.23809524,1,"TrialProc","Target",107494,1,437,2,1
104,"red",22,100,95.45454545,2,"TrialProc","Nontarget",110988,1,400,2,2
104,"red",23,100,95.65217391,2,"TrialProc","Nontarget",114532,1,420,2,2
104,"red",24,100,95.83333333,2,"TrialProc","Nontarget",118143,1,509,2,2
104,"red",25,100,96,2,"TrialProc","Lure",121720,1,555,2,2
104,"red",26,100,96.15384615,2,"TrialProc","Nontarget",125431,1,749,2,2
104,"red",27,100,96.2962963,2,"TrialProc","Nontarget",128925,1,720,2,2
104,"red",28,100,96.42857143,1,"TrialProc","Target",132151,1,419,2,1
104,"red",29,100,96.55172414,1,"TrialProc","Target",135996,1,745,2,1
104,"red",30,100,96.66666667,2,"TrialProc","Nontarget",139256,1,498,2,2
104,"red",31,100,96.77419355,2,"TrialProc","Nontarget",142683,1,410,2,2
104,"red",32,100,96.875,2,"TrialProc","Nontarget",146243,1,459,2,2
104,"red",33,100,96.96969697,1,"TrialProc","Target",149938,1,632,2,1
104,"red",34,100,97.05882353,2,"TrialProc","Nontarget",153381,1,558,2,2
104,"red",35,100,97.14285714,1,"TrialProc","Target",156758,1,409,2,1
104,"red",36,100,97.22222222,2,"TrialProc","Nontarget",160285,1,417,2,2
104,"red",37,100,97.2972973,1,"TrialProc","Target",163997,1,601,2,1
104,"red",38,100,97.36842105,1,"TrialProc","Target",167958,1,1042,2,1
104,"red",39,100,97.43589744,2,"TrialProc","Nontarget",171034,1,593,2,2
104,"red",40,100,97.5,2,"TrialProc","Lure",174963,1,1011,2,2
104,"red",41,91.66666667,95.12195122,1,"TrialProc","Target",178975,0,0,2,NA
104,"red",42,91.66666667,95.23809524,2,"TrialProc","Nontarget",181633,1,645,2,2
104,"red",43,91.66666667,95.34883721,2,"TrialProc","Nontarget",185177,1,679,2,2
104,"red",44,91.66666667,95.45454545,2,"TrialProc","Lure",188787,1,781,2,2
104,"red",45,91.66666667,93.33333333,2,"TrialProc","Lure",191913,0,393,2,1
104,"red",46,91.66666667,91.30434783,2,"TrialProc","Lure",195441,0,412,2,1
104,"red",47,91.66666667,91.4893617,2,"TrialProc","Nontarget",199168,1,618,2,2
104,"red",48,91.66666667,91.66666667,2,"TrialProc","Nontarget",202512,1,448,2,2
104,"red",49,91.66666667,91.83673469,2,"TrialProc","Lure",206189,1,605,2,2
104,"red",50,91.66666667,92,2,"TrialProc","Nontarget",209666,1,558,2,2
104,"red",51,91.66666667,92.15686275,2,"TrialProc","Nontarget",213160,1,522,2,2
104,"red",52,92.30769231,92.30769231,1,"TrialProc","Target",216754,1,591,2,1
104,"red",53,92.30769231,92.45283019,2,"TrialProc","Nontarget",220800,1,1115,2,2
104,"red",54,92.30769231,90.74074074,2,"TrialProc","Nontarget",224695,0,0,2,NA
104,"red",55,92.30769231,90.90909091,2,"TrialProc","Nontarget",227821,1,1113,2,2
104,"red",56,92.85714286,91.07142857,1,"TrialProc","Target",231231,1,999,2,1
104,"red",57,93.33333333,91.22807018,1,"TrialProc","Target",234708,1,954,2,1
104,"red",58,93.33333333,91.37931034,2,"TrialProc","Nontarget",237817,1,546,2,2
104,"red",59,93.33333333,91.52542373,2,"TrialProc","Nontarget",241361,1,579,2,2
104,"red",60,93.33333333,91.66666667,2,"TrialProc","Nontarget",244772,1,469,2,2
104,"red",61,93.33333333,91.80327869,2,"TrialProc","Nontarget",248399,1,569,2,2
104,"red",62,93.33333333,91.93548387,2,"TrialProc","Nontarget",251893,1,546,2,2
104,"red",63,93.33333333,92.06349206,2,"TrialProc","Nontarget",255520,1,665,2,2
104,"red",64,93.75,92.1875,1,"TrialProc","Target",259048,1,667,2,1
104,"yellow",1,0,0,2,"TrialProc","Nontarget",50631,0,0,5,NA
104,"yellow",2,0,50,2,"TrialProc","Nontarget",53172,1,520,5,2
104,"yellow",3,0,66.66666667,2,"TrialProc","Nontarget",56699,1,519,5,2
104,"yellow",4,0,75,2,"TrialProc","Nontarget",60143,1,439,5,2
104,"yellow",5,0,80,2,"TrialProc","Nontarget",63703,1,476,5,2
104,"yellow",6,0,83.33333333,2,"TrialProc","Nontarget",67147,1,407,5,2
104,"yellow",7,100,85.71428571,1,"TrialProc","Target",71042,1,781,5,1
104,"yellow",8,100,87.5,2,"TrialProc","Nontarget",74235,1,455,5,2
104,"yellow",9,100,88.88888889,2,"TrialProc","Nontarget",77796,1,500,5,2
104,"yellow",10,100,90,2,"TrialProc","Nontarget",81557,1,750,5,2
104,"yellow",11,50,81.81818182,1,"TrialProc","Target",84917,0,589,5,2
104,"yellow",12,33.33333333,75,1,"TrialProc","Target",88427,0,568,5,2
104,"yellow",13,25,69.23076923,1,"TrialProc","Target",92005,0,632,5,2
104,"yellow",14,25,64.28571429,2,"TrialProc","Nontarget",96384,0,0,5,NA
104,"yellow",15,25,66.66666667,2,"TrialProc","Nontarget",98925,1,528,5,2
104,"yellow",16,25,68.75,2,"TrialProc","Nontarget",102352,1,436,5,2
104,"yellow",17,25,70.58823529,2,"TrialProc","Nontarget",106147,1,708,5,2
104,"yellow",18,25,72.22222222,2,"TrialProc","Nontarget",109657,1,697,5,2
104,"yellow",19,20,68.42105263,1,"TrialProc","Target",113970,0,0,5,NA
104,"yellow",20,20,70,2,"TrialProc","Nontarget",116545,1,554,5,2
104,"yellow",21,20,71.42857143,2,"TrialProc","Nontarget",120105,1,585,5,2
104,"yellow",22,20,72.72727273,2,"TrialProc","Lure",123650,1,616,5,2
104,"yellow",23,20,73.91304348,2,"TrialProc","Nontarget",127277,1,732,5,2
104,"yellow",24,16.66666667,70.83333333,1,"TrialProc","Target",130670,0,614,5,2
104,"yellow",25,14.28571429,68,1,"TrialProc","Target",134365,0,798,5,2
104,"yellow",26,14.28571429,69.23076923,2,"TrialProc","Nontarget",138093,1,1003,5,2
104,"yellow",27,25,70.37037037,1,"TrialProc","Target",141235,1,632,5,1
104,"yellow",28,25,71.42857143,2,"TrialProc","Nontarget",144946,1,831,5,2
104,"yellow",29,25,72.4137931,2,"TrialProc","Nontarget",148189,1,555,5,2
104,"yellow",30,25,70,2,"TrialProc","Nontarget",151466,0,299,5,1
104,"yellow",31,25,70.96774194,2,"TrialProc","Lure",155344,1,664,5,2
104,"yellow",32,25,71.875,2,"TrialProc","Nontarget",158838,1,643,5,2
104,"yellow",33,25,72.72727273,2,"TrialProc","Nontarget",162449,1,729,5,2
104,"yellow",34,25,73.52941176,2,"TrialProc","Nontarget",166461,1,1229,5,2
104,"yellow",35,25,74.28571429,2,"TrialProc","Lure",169654,1,898,5,2
104,"yellow",36,33.33333333,75,1,"TrialProc","Target",172997,1,732,5,1
104,"yellow",37,40,75.67567568,1,"TrialProc","Target",176875,1,1097,5,1
104,"yellow",38,40,76.31578947,2,"TrialProc","Nontarget",179951,1,664,5,2
104,"yellow",39,40,76.92307692,2,"TrialProc","Nontarget",183478,1,668,5,2
104,"yellow",40,40,77.5,2,"TrialProc","Nontarget",186788,1,464,5,2
104,"yellow",41,40,78.04878049,2,"TrialProc","Nontarget",190466,1,624,5,2
104,"yellow",42,40,78.57142857,2,"TrialProc","Nontarget",194662,1,1286,5,2
104,"yellow",43,40,79.06976744,2,"TrialProc","Nontarget",197420,1,530,5,2
104,"yellow",44,36.36363636,77.27272727,1,"TrialProc","Target",201298,0,889,5,2
104,"yellow",45,33.33333333,75.55555556,1,"TrialProc","Target",204408,0,480,5,2
104,"yellow",46,33.33333333,76.08695652,2,"TrialProc","Nontarget",207902,1,465,5,2
104,"yellow",47,33.33333333,76.59574468,2,"TrialProc","Nontarget",211412,1,456,5,2
104,"yellow",48,33.33333333,77.08333333,2,"TrialProc","Nontarget",214839,1,364,5,2
104,"yellow",49,33.33333333,77.55102041,2,"TrialProc","Nontarget",218567,1,578,5,2
104,"yellow",50,33.33333333,78,2,"TrialProc","Nontarget",222060,1,556,5,2
104,"yellow",51,30.76923077,76.47058824,1,"TrialProc","Target",225638,0,608,5,2
104,"yellow",52,30.76923077,76.92307692,2,"TrialProc","Nontarget",228630,1,78,5,2
104,"yellow",53,35.71428571,77.35849057,1,"TrialProc","Target",232692,1,629,5,1
104,"yellow",54,35.71428571,77.77777778,2,"TrialProc","Nontarget",235902,1,324,5,2
104,"yellow",55,35.71428571,78.18181818,2,"TrialProc","Nontarget",239362,1,261,5,2
104,"yellow",56,40,78.57142857,1,"TrialProc","Target",243592,1,982,5,1
104,"yellow",57,37.5,77.19298246,1,"TrialProc","Target",247303,0,1177,5,2
104,"yellow",58,37.5,77.5862069,2,"TrialProc","Nontarget",250529,1,868,5,2
104,"yellow",59,37.5,77.96610169,2,"TrialProc","Nontarget",253739,1,553,5,2
104,"yellow",60,37.5,78.33333333,2,"TrialProc","Nontarget",257717,1,1010,5,2
104,"yellow",61,37.5,77.04918033,2,"TrialProc","Nontarget",261044,0,803,5,1
104,"yellow",62,37.5,77.41935484,2,"TrialProc","Nontarget",264471,1,711,5,2
104,"yellow",63,37.5,77.77777778,2,"TrialProc","Nontarget",267915,1,633,5,2
104,"yellow",64,37.5,78.125,2,"TrialProc","Nontarget",271625,1,821,5,2
105,"black",1,0,100,2,"TrialProc","Nontarget",28115,1,461,1,2
105,"black",2,0,100,2,"TrialProc","Nontarget",31565,1,372,1,2
105,"black",3,0,100,2,"TrialProc","Nontarget",35130,1,411,1,2
105,"black",4,0,100,2,"TrialProc","Nontarget",38680,1,437,1,2
105,"black",5,0,100,2,"TrialProc","Lure",42695,1,914,1,2
105,"black",6,100,100,1,"TrialProc","Target",45945,1,629,1,1
105,"black",7,100,100,2,"TrialProc","Nontarget",49510,1,664,1,2
105,"black",8,100,100,2,"TrialProc","Nontarget",52910,1,537,1,2
105,"black",9,100,100,2,"TrialProc","Nontarget",56542,1,631,1,2
105,"black",10,100,100,1,"TrialProc","Target",60141,1,705,1,1
105,"black",11,100,100,2,"TrialProc","Nontarget",63524,1,574,1,2
105,"black",12,100,100,2,"TrialProc","Lure",66956,1,486,1,2
105,"black",13,100,100,2,"TrialProc","Nontarget",70489,1,482,1,2
105,"black",14,100,100,2,"TrialProc","Lure",74121,1,580,1,2
105,"black",15,100,100,2,"TrialProc","Nontarget",77571,1,498,1,2
105,"black",16,100,100,2,"TrialProc","Lure",81103,1,504,1,2
105,"black",17,100,100,2,"TrialProc","Nontarget",84702,1,563,1,2
105,"black",18,100,100,2,"TrialProc","Nontarget",88102,1,430,1,2
105,"black",19,100,100,1,"TrialProc","Target",91784,1,579,1,1
105,"black",20,100,100,2,"TrialProc","Nontarget",95267,1,525,1,2
105,"black",21,100,100,1,"TrialProc","Target",98699,1,438,1,1
105,"black",22,100,100,2,"TrialProc","Nontarget",102265,1,490,1,2
105,"black",23,100,100,2,"TrialProc","Nontarget",105781,1,469,1,2
105,"black",24,100,100,2,"TrialProc","Nontarget",109363,1,511,1,2
105,"black",25,100,100,1,"TrialProc","Target",112796,1,419,1,1
105,"black",26,100,100,2,"TrialProc","Nontarget",116413,1,490,1,2
105,"black",27,100,100,1,"TrialProc","Target",120127,1,668,1,1
105,"black",28,100,100,1,"TrialProc","Target",123727,1,741,1,1
105,"black",29,100,100,2,"TrialProc","Nontarget",126959,1,457,1,2
105,"black",30,100,100,2,"TrialProc","Nontarget",130608,1,567,1,2
105,"black",31,100,100,1,"TrialProc","Target",134124,1,549,1,1
105,"black",32,100,100,2,"TrialProc","Nontarget",137524,1,424,1,2
105,"black",33,100,100,2,"TrialProc","Nontarget",141106,1,482,1,2
105,"black",34,100,100,2,"TrialProc","Nontarget",144705,1,551,1,2
105,"black",35,100,100,2,"TrialProc","Lure",148104,1,424,1,2
105,"black",36,100,100,1,"TrialProc","Target",151737,1,527,1,1
105,"black",37,100,100,2,"TrialProc","Nontarget",155169,1,433,1,2
105,"black",38,100,100,1,"TrialProc","Target",158969,1,704,1,1
105,"black",39,100,100,2,"TrialProc","Nontarget",162551,1,749,1,2
105,"black",40,100,100,1,"TrialProc","Target",165950,1,607,1,1
105,"black",41,100,100,2,"TrialProc","Nontarget",169483,1,625,1,2
105,"black",42,100,100,2,"TrialProc","Lure",173082,1,694,1,2
105,"black",43,100,100,2,"TrialProc","Lure",176531,1,619,1,2
105,"black",44,100,100,2,"TrialProc","Nontarget",180164,1,723,1,2
105,"black",45,100,100,2,"TrialProc","Nontarget",183696,1,731,1,2
105,"black",46,100,100,2,"TrialProc","Nontarget",187079,1,587,1,2
105,"black",47,100,100,2,"TrialProc","Lure",190645,1,613,1,2
105,"black",48,100,100,1,"TrialProc","Target",194211,1,656,1,1
105,"black",49,100,100,2,"TrialProc","Nontarget",197460,1,373,1,2
105,"black",50,100,100,2,"TrialProc","Nontarget",201075,1,444,1,2
105,"black",51,100,100,1,"TrialProc","Target",205124,1,962,1,1
105,"black",52,100,100,1,"TrialProc","Target",208174,1,476,1,1
105,"black",53,100,100,2,"TrialProc","Nontarget",211623,1,393,1,2
105,"black",54,100,100,2,"TrialProc","Nontarget",215289,1,525,1,2
105,"black",55,100,100,2,"TrialProc","Nontarget",218871,1,572,1,2
105,"black",56,100,100,1,"TrialProc","Target",222371,1,525,1,1
105,"black",57,100,100,2,"TrialProc","Nontarget",225903,1,543,1,2
105,"black",58,100,100,2,"TrialProc","Nontarget",229369,1,486,1,2
105,"black",59,100,100,2,"TrialProc","Nontarget",232951,1,524,1,2
105,"black",60,100,100,2,"TrialProc","Nontarget",236501,1,537,1,2
105,"black",61,100,100,2,"TrialProc","Nontarget",240033,1,536,1,2
105,"black",62,100,100,2,"TrialProc","Nontarget",243466,1,430,1,2
105,"black",63,100,100,1,"TrialProc","Target",247231,1,655,1,1
105,"black",64,100,100,2,"TrialProc","Nontarget",250714,1,587,1,2
105,"blue",1,0,100,2,"TrialProc","Nontarget",40830,1,486,3,2
105,"blue",2,0,100,2,"TrialProc","Nontarget",44263,1,388,3,2
105,"blue",3,0,100,2,"TrialProc","Nontarget",47878,1,463,3,2
105,"blue",4,0,100,2,"TrialProc","Lure",51511,1,572,3,2
105,"blue",5,0,100,2,"TrialProc","Nontarget",55543,1,1078,3,2
105,"blue",6,0,100,2,"TrialProc","Nontarget",58759,1,767,3,2
105,"blue",7,0,100,2,"TrialProc","Nontarget",62592,1,1055,3,2
105,"blue",8,0,100,2,"TrialProc","Nontarget",66341,1,1266,3,2
105,"blue",9,0,100,2,"TrialProc","Nontarget",69807,1,1199,3,2
105,"blue",10,100,100,1,"TrialProc","Target",72906,1,776,3,1
105,"blue",11,100,90.90909091,2,"TrialProc","Lure",76172,0,523,3,1
105,"blue",12,100,91.66666667,2,"TrialProc","Nontarget",79921,1,745,3,2
105,"blue",13,100,92.30769231,2,"TrialProc","Nontarget",84187,1,1488,3,2
105,"blue",14,100,85.71428571,2,"TrialProc","Nontarget",87719,0,0,3,NA
105,"blue",15,100,86.66666667,2,"TrialProc","Nontarget",91118,1,1359,3,2
105,"blue",16,100,87.5,1,"TrialProc","Target",93751,1,477,3,1
105,"blue",17,100,88.23529412,2,"TrialProc","Nontarget",97417,1,610,3,2
105,"blue",18,100,88.88888889,2,"TrialProc","Nontarget",100983,1,653,3,2
105,"blue",19,100,84.21052632,2,"TrialProc","Lure",104665,0,796,3,1
105,"blue",20,100,80,2,"TrialProc","Lure",108898,0,0,3,NA
105,"blue",21,100,80.95238095,1,"TrialProc","Target",111814,1,879,3,1
105,"blue",22,100,81.81818182,2,"TrialProc","Nontarget",115296,1,835,3,2
105,"blue",23,100,82.60869565,1,"TrialProc","Target",118495,1,505,3,1
105,"blue",24,100,79.16666667,2,"TrialProc","Nontarget",123011,0,0,3,NA
105,"blue",25,100,80,2,"TrialProc","Nontarget",126027,1,987,3,2
105,"blue",26,80,76.92307692,1,"TrialProc","Target",129276,0,698,3,2
105,"blue",27,80,77.77777778,2,"TrialProc","Nontarget",132625,1,511,3,2
105,"blue",28,80,78.57142857,2,"TrialProc","Nontarget",136508,1,867,3,2
105,"blue",29,80,79.31034483,2,"TrialProc","Nontarget",140124,1,942,3,2
105,"blue",30,83.33333333,80,1,"TrialProc","Target",143273,1,574,3,1
105,"blue",31,85.71428571,80.64516129,1,"TrialProc","Target",146722,1,491,3,1
105,"blue",32,85.71428571,81.25,2,"TrialProc","Nontarget",150971,1,1216,3,2
105,"blue",33,85.71428571,81.81818182,2,"TrialProc","Nontarget",154554,1,1273,3,2
105,"blue",34,85.71428571,82.35294118,2,"TrialProc","Nontarget",157786,1,992,3,2
105,"blue",35,87.5,82.85714286,1,"TrialProc","Target",160719,1,401,3,1
105,"blue",36,87.5,83.33333333,2,"TrialProc","Nontarget",164785,1,938,3,2
105,"blue",37,88.88888889,83.78378378,1,"TrialProc","Target",168018,1,644,3,1
105,"blue",38,88.88888889,84.21052632,2,"TrialProc","Nontarget",172033,1,1134,3,2
105,"blue",39,80,82.05128205,1,"TrialProc","Target",175915,0,1475,3,2
105,"blue",40,80,82.5,2,"TrialProc","Nontarget",178881,1,920,3,2
105,"blue",41,80,82.92682927,2,"TrialProc","Nontarget",182081,1,579,3,2
105,"blue",42,80,83.33333333,2,"TrialProc","Nontarget",186046,1,1013,3,2
105,"blue",43,80,83.72093023,2,"TrialProc","Nontarget",189462,1,898,3,2
105,"blue",44,80,84.09090909,2,"TrialProc","Nontarget",192812,1,719,3,2
105,"blue",45,81.81818182,84.44444444,1,"TrialProc","Target",196311,1,678,3,1
105,"blue",46,81.81818182,84.7826087,2,"TrialProc","Nontarget",200510,1,1355,3,2
105,"blue",47,75,82.9787234,1,"TrialProc","Target",204176,0,0,3,NA
105,"blue",48,75,83.33333333,2,"TrialProc","Nontarget",206992,1,791,3,2
105,"blue",49,75,83.67346939,2,"TrialProc","Nontarget",210174,1,451,3,2
105,"blue",50,75,84,2,"TrialProc","Nontarget",213957,1,697,3,2
105,"blue",51,75,84.31372549,2,"TrialProc","Nontarget",217406,1,606,3,2
105,"blue",52,75,84.61538462,2,"TrialProc","Nontarget",220905,1,577,3,2
105,"blue",53,75,84.90566038,2,"TrialProc","Nontarget",224788,1,937,3,2
105,"blue",54,76.92307692,85.18518519,1,"TrialProc","Target",228303,1,916,3,1
105,"blue",55,76.92307692,85.45454545,2,"TrialProc","Nontarget",231669,1,746,3,2
105,"blue",56,76.92307692,85.71428571,2,"TrialProc","Nontarget",235102,1,656,3,2
