"Subject","stimcol","trial","TargAcc","TotAcc","corrResp","procedure","kind","BuffOnset","TrialAcc","RT","n","Resp"
165,"black",1,0,0,2,"TrialProc","Nontarget",134157,0,0,1,NA
165,"black",2,0,0,2,"TrialProc","Nontarget",137668,0,0,1,NA
165,"black",3,0,0,2,"TrialProc","Nontarget",141178,0,0,1,NA
165,"black",4,100,25,1,"TrialProc","Target",143853,1,658,1,1
165,"black",5,100,40,2,"TrialProc","Nontarget",147631,1,909,1,2
165,"black",6,100,50,2,"TrialProc","Nontarget",150723,1,467,1,2
165,"black",7,100,57.14285714,2,"TrialProc","Nontarget",154317,1,546,1,2
165,"black",8,100,62.5,2,"TrialProc","Lure",157778,1,493,1,2
165,"black",9,100,66.66666667,1,"TrialProc","Target",161171,1,373,1,1
165,"black",10,100,70,2,"TrialProc","Nontarget",164749,1,419,1,2
165,"black",11,100,72.72727273,2,"TrialProc","Nontarget",168209,1,357,1,2
165,"black",12,100,75,2,"TrialProc","Nontarget",171703,1,332,1,2
165,"black",13,100,76.92307692,1,"TrialProc","Target",175180,1,293,1,1
165,"black",14,100,78.57142857,2,"TrialProc","Nontarget",178908,1,502,1,2
165,"black",15,100,80,2,"TrialProc","Nontarget",182318,1,396,1,2
165,"black",16,100,81.25,1,"TrialProc","Target",185996,1,566,1,1
165,"black",17,100,82.35294118,2,"TrialProc","Nontarget",189372,1,420,1,2
165,"black",18,100,83.33333333,2,"TrialProc","Lure",192816,1,335,1,2
165,"black",19,100,84.21052632,2,"TrialProc","Nontarget",196327,1,316,1,2
165,"black",20,100,85,2,"TrialProc","Nontarget",199854,1,329,1,2
165,"black",21,100,85.71428571,2,"TrialProc","Nontarget",203398,1,356,1,2
165,"black",22,100,86.36363636,2,"TrialProc","Lure",206908,1,336,1,2
165,"black",23,100,86.95652174,2,"TrialProc","Nontarget",210519,1,423,1,2
165,"black",24,100,87.5,2,"TrialProc","Lure",213946,1,324,1,2
165,"black",25,100,88,2,"TrialProc","Nontarget",217540,1,385,1,2
165,"black",26,100,88.46153846,2,"TrialProc","Lure",221034,1,366,1,2
165,"black",27,100,88.88888889,2,"TrialProc","Nontarget",224611,1,416,1,2
165,"black",28,100,89.28571429,2,"TrialProc","Lure",228155,1,433,1,2
165,"black",29,100,89.65517241,2,"TrialProc","Nontarget",231565,1,330,1,2
165,"black",30,100,90,2,"TrialProc","Lure",235109,1,365,1,2
165,"black",31,100,90.32258065,1,"TrialProc","Target",238620,1,361,1,1
165,"black",32,100,90.625,2,"TrialProc","Nontarget",242131,1,367,1,2
165,"black",33,100,90.90909091,2,"TrialProc","Nontarget",245607,1,318,1,2
165,"black",34,100,91.17647059,2,"TrialProc","Nontarget",249135,1,327,1,2
165,"black",35,100,91.42857143,1,"TrialProc","Target",252795,1,471,1,1
165,"black",36,100,91.66666667,2,"TrialProc","Nontarget",256222,1,374,1,2
165,"black",37,100,91.89189189,1,"TrialProc","Target",259817,1,436,1,1
165,"black",38,100,92.10526316,2,"TrialProc","Nontarget",263227,1,322,1,2
165,"black",39,100,92.30769231,2,"TrialProc","Nontarget",266771,1,338,1,2
165,"black",40,100,92.5,2,"TrialProc","Nontarget",270331,1,371,1,2
165,"black",41,100,92.68292683,1,"TrialProc","Target",273992,1,514,1,1
165,"black",42,100,92.85714286,2,"TrialProc","Nontarget",277402,1,401,1,2
165,"black",43,100,93.02325581,2,"TrialProc","Nontarget",280846,1,330,1,2
165,"black",44,100,93.18181818,1,"TrialProc","Target",284507,1,482,1,1
165,"black",45,100,93.33333333,2,"TrialProc","Nontarget",287867,1,330,1,2
165,"black",46,100,93.47826087,1,"TrialProc","Target",291428,1,382,1,1
165,"black",47,100,93.61702128,1,"TrialProc","Target",294938,1,369,1,1
165,"black",48,100,93.75,2,"TrialProc","Nontarget",298465,1,372,1,2
165,"black",49,100,93.87755102,2,"TrialProc","Nontarget",302093,1,476,1,2
165,"black",50,100,94,2,"TrialProc","Nontarget",305470,1,348,1,2
165,"black",51,100,94.11764706,2,"TrialProc","Lure",309264,1,622,1,2
165,"black",52,100,94.23076923,1,"TrialProc","Target",312775,1,603,1,1
165,"black",53,100,94.33962264,2,"TrialProc","Nontarget",316135,1,441,1,2
165,"black",54,100,94.44444444,1,"TrialProc","Target",319579,1,360,1,1
165,"black",55,100,94.54545455,1,"TrialProc","Target",323173,1,444,1,1
165,"black",56,100,94.64285714,2,"TrialProc","Nontarget",326583,1,348,1,2
165,"black",57,100,94.73684211,2,"TrialProc","Nontarget",330110,1,351,1,2
165,"black",58,100,94.82758621,1,"TrialProc","Target",333838,1,566,1,1
165,"black",59,100,94.91525424,2,"TrialProc","Nontarget",337165,1,379,1,2
165,"black",60,100,95,2,"TrialProc","Nontarget",341143,1,849,1,2
165,"black",61,100,95.08196721,1,"TrialProc","Target",344186,1,368,1,1
165,"black",62,100,95.16129032,2,"TrialProc","Nontarget",347763,1,417,1,2
165,"black",63,100,95.23809524,2,"TrialProc","Nontarget",351692,1,833,1,2
165,"black",64,100,95.3125,2,"TrialProc","Nontarget",354784,1,415,1,2
165,"blue",1,0,100,2,"TrialProc","Nontarget",65883,1,834,3,2
165,"blue",2,0,100,2,"TrialProc","Nontarget",69209,1,636,3,2
165,"blue",3,0,100,2,"TrialProc","Nontarget",73037,1,944,3,2
165,"blue",4,0,100,2,"TrialProc","Nontarget",76665,1,1062,3,2
165,"blue",5,0,100,2,"TrialProc","Nontarget",80209,1,1096,3,2
165,"blue",6,0,100,2,"TrialProc","Nontarget",83753,1,1122,3,2
165,"blue",7,0,100,2,"TrialProc","Nontarget",87347,1,1201,3,2
165,"blue",8,0,100,2,"TrialProc","Nontarget",90790,1,1133,3,2
165,"blue",9,0,88.88888889,1,"TrialProc","Target",94485,0,1313,3,2
165,"blue",10,0,90,2,"TrialProc","Nontarget",97577,1,895,3,2
165,"blue",11,0,90.90909091,2,"TrialProc","Nontarget",101573,1,1374,3,2
165,"blue",12,0,83.33333333,2,"TrialProc","Nontarget",105217,0,0,3,NA
165,"blue",13,50,84.61538462,1,"TrialProc","Target",108510,1,1271,3,1
165,"blue",14,50,78.57142857,2,"TrialProc","Lure",112255,0,0,3,NA
165,"blue",15,33.33333333,73.33333333,1,"TrialProc","Target",115765,0,0,3,NA
165,"blue",16,33.33333333,75,2,"TrialProc","Lure",118757,1,973,3,2
165,"blue",17,33.33333333,76.47058824,2,"TrialProc","Nontarget",122669,1,1359,3,2
165,"blue",18,33.33333333,77.77777778,2,"TrialProc","Nontarget",126180,1,1349,3,2
165,"blue",19,33.33333333,78.94736842,2,"TrialProc","Nontarget",129657,1,1312,3,2
165,"blue",20,33.33333333,80,2,"TrialProc","Nontarget",133050,1,1194,3,2
165,"blue",21,33.33333333,80.95238095,2,"TrialProc","Nontarget",136410,1,1028,3,2
165,"blue",22,33.33333333,81.81818182,2,"TrialProc","Nontarget",139469,1,580,3,2
165,"blue",23,33.33333333,78.26086957,2,"TrialProc","Lure",143766,0,1362,3,1
165,"blue",24,50,79.16666667,1,"TrialProc","Target",147076,1,1144,3,1
165,"blue",25,50,80,2,"TrialProc","Lure",150319,1,853,3,2
165,"blue",26,50,80.76923077,2,"TrialProc","Nontarget",153478,1,497,3,2
165,"blue",27,50,81.48148148,2,"TrialProc","Nontarget",157707,1,1213,3,2
165,"blue",28,50,82.14285714,2,"TrialProc","Nontarget",161485,1,1480,3,2
165,"blue",29,50,82.75862069,2,"TrialProc","Nontarget",164728,1,1211,3,2
165,"blue",30,50,83.33333333,2,"TrialProc","Nontarget",168322,1,1294,3,2
165,"blue",31,50,83.87096774,2,"TrialProc","Nontarget",171950,1,1394,3,2
165,"blue",32,60,84.375,1,"TrialProc","Target",175160,1,1073,3,1
165,"blue",33,50,81.81818182,1,"TrialProc","Target",178804,0,1200,3,2
165,"blue",34,50,82.35294118,2,"TrialProc","Nontarget",181846,1,726,3,2
165,"blue",35,50,82.85714286,2,"TrialProc","Nontarget",185323,1,669,3,2
165,"blue",36,50,83.33333333,2,"TrialProc","Nontarget",189319,1,1135,3,2
165,"blue",37,50,83.78378378,2,"TrialProc","Nontarget",192595,1,891,3,2
165,"blue",38,50,84.21052632,2,"TrialProc","Nontarget",196289,1,1054,3,2
165,"blue",39,50,84.61538462,2,"TrialProc","Nontarget",199934,1,1175,3,2
165,"blue",40,57.14285714,85,1,"TrialProc","Target",203260,1,973,3,1
165,"blue",41,62.5,85.36585366,1,"TrialProc","Target",207222,1,1404,3,1
165,"blue",42,66.66666667,85.71428571,1,"TrialProc","Target",209947,1,614,3,1
165,"blue",43,70,86.04651163,1,"TrialProc","Target",213257,1,410,3,1
165,"blue",44,70,84.09090909,2,"TrialProc","Nontarget",217854,0,0,3,NA
165,"blue",45,63.63636364,82.22222222,1,"TrialProc","Target",221365,0,0,3,NA
165,"blue",46,63.63636364,82.60869565,2,"TrialProc","Nontarget",224257,1,872,3,2
165,"blue",47,63.63636364,82.9787234,2,"TrialProc","Nontarget",227934,1,1028,3,2
165,"blue",48,63.63636364,83.33333333,2,"TrialProc","Nontarget",231528,1,1106,3,2
165,"blue",49,66.66666667,83.67346939,1,"TrialProc","Target",234353,1,401,3,1
165,"blue",50,66.66666667,84,2,"TrialProc","Nontarget",238198,1,724,3,2
165,"blue",51,66.66666667,84.31372549,2,"TrialProc","Nontarget",241675,1,683,3,2
165,"blue",52,66.66666667,84.61538462,2,"TrialProc","Nontarget",245219,1,716,3,2
165,"blue",53,61.53846154,83.01886792,1,"TrialProc","Target",249031,0,1016,3,2
165,"blue",54,57.14285714,81.48148148,1,"TrialProc","Target",252106,0,578,3,2
165,"blue",55,57.14285714,81.81818182,2,"TrialProc","Nontarget",255650,1,603,3,2
165,"blue",56,57.14285714,82.14285714,2,"TrialProc","Nontarget",259161,1,599,3,2
165,"blue",57,57.14285714,82.45614035,2,"TrialProc","Nontarget",262588,1,509,3,2
165,"blue",58,60,82.75862069,1,"TrialProc","Target",265965,1,360,3,1
165,"blue",59,60,83.05084746,2,"TrialProc","Nontarget",269542,1,425,3,2
165,"blue",60,60,83.33333333,2,"TrialProc","Nontarget",273220,1,582,3,2
165,"blue",61,60,83.60655738,2,"TrialProc","Nontarget",276881,1,727,3,2
165,"blue",62,60,83.87096774,2,"TrialProc","Lure",280575,1,898,3,2
165,"blue",63,62.5,84.12698413,1,"TrialProc","Target",284303,1,1115,3,1
165,"blue",64,62.5,84.375,2,"TrialProc","Nontarget",288014,1,1309,3,2
165,"purple",1,0,100,2,"TrialProc","Nontarget",64852,1,1043,4,2
165,"purple",2,0,100,2,"TrialProc","Nontarget",68346,1,1016,4,2
165,"purple",3,0,100,2,"TrialProc","Nontarget",72041,1,1186,4,2
165,"purple",4,0,100,2,"TrialProc","Nontarget",74916,1,542,4,2
165,"purple",5,0,100,2,"TrialProc","Nontarget",78911,1,1015,4,2
165,"purple",6,0,100,2,"TrialProc","Nontarget",82572,1,1156,4,2
165,"purple",7,0,85.71428571,2,"TrialProc","Nontarget",86434,0,0,4,NA
165,"purple",8,100,87.5,1,"TrialProc","Target",89276,1,833,4,1
165,"purple",9,100,88.88888889,2,"TrialProc","Nontarget",92652,1,699,4,2
165,"purple",10,100,90,2,"TrialProc","Nontarget",96029,1,552,4,2
165,"purple",11,100,81.81818182,2,"TrialProc","Lure",100492,0,0,4,NA
165,"purple",12,100,75,2,"TrialProc","Nontarget",103251,0,744,4,1
165,"purple",13,100,69.23076923,2,"TrialProc","Nontarget",107513,0,0,4,NA
165,"purple",14,100,71.42857143,1,"TrialProc","Target",110221,1,695,4,1
165,"purple",15,100,73.33333333,2,"TrialProc","Lure",113832,1,796,4,2
165,"purple",16,100,75,2,"TrialProc","Nontarget",117142,1,588,4,2
165,"purple",17,100,76.47058824,1,"TrialProc","Target",120854,1,784,4,1
165,"purple",18,100,77.77777778,2,"TrialProc","Nontarget",123979,1,393,4,2
165,"purple",19,75,73.68421053,1,"TrialProc","Target",127674,0,583,4,2
165,"purple",20,75,75,2,"TrialProc","Nontarget",131084,1,473,4,2
165,"purple",21,75,76.19047619,2,"TrialProc","Nontarget",134628,1,495,4,2
165,"purple",22,75,77.27272727,2,"TrialProc","Nontarget",138439,1,792,4,2
165,"purple",23,75,73.91304348,2,"TrialProc","Nontarget",141732,0,563,4,1
165,"purple",24,80,75,1,"TrialProc","Target",145260,1,579,4,1
165,"purple",25,80,76,2,"TrialProc","Nontarget",148620,1,430,4,2
165,"purple",26,66.66666667,73.07692308,1,"TrialProc","Target",152097,0,385,4,2
165,"purple",27,66.66666667,74.07407407,2,"TrialProc","Nontarget",155708,1,467,4,2
165,"purple",28,66.66666667,75,2,"TrialProc","Nontarget",159469,1,702,4,2
165,"purple",29,57.14285714,72.4137931,1,"TrialProc","Target",163330,0,1038,4,2
165,"purple",30,57.14285714,70,2,"TrialProc","Lure",166490,0,673,4,1
165,"purple",31,57.14285714,70.96774194,2,"TrialProc","Nontarget",169950,1,612,4,2
165,"purple",32,50,68.75,1,"TrialProc","Target",173912,0,1056,4,2
165,"purple",33,50,69.6969697,2,"TrialProc","Nontarget",177055,1,668,4,2
165,"purple",34,50,70.58823529,2,"TrialProc","Nontarget",180348,1,446,4,2
165,"purple",35,50,71.42857143,2,"TrialProc","Nontarget",183825,1,413,4,2
165,"purple",36,50,72.22222222,2,"TrialProc","Nontarget",187837,1,906,4,2
165,"purple",37,50,72.97297297,2,"TrialProc","Nontarget",191314,1,856,4,2
165,"purple",38,44.44444444,71.05263158,1,"TrialProc","Target",195075,0,1098,4,2
165,"purple",39,50,71.79487179,1,"TrialProc","Target",198185,1,689,4,1
165,"purple",40,50,70,2,"TrialProc","Nontarget",201929,0,903,4,1
165,"purple",41,45.45454545,68.29268293,1,"TrialProc","Target",205524,0,984,4,2
165,"purple",42,45.45454545,69.04761905,2,"TrialProc","Nontarget",208649,1,585,4,2
165,"purple",43,45.45454545,69.76744186,2,"TrialProc","Nontarget",212461,1,871,4,2
165,"purple",44,41.66666667,68.18181818,1,"TrialProc","Target",215871,0,766,4,2
165,"purple",45,41.66666667,68.88888889,2,"TrialProc","Nontarget",219264,1,639,4,2
165,"purple",46,46.15384615,69.56521739,1,"TrialProc","Target",222608,1,455,4,1
165,"purple",47,46.15384615,70.21276596,2,"TrialProc","Nontarget",226219,1,537,4,2
165,"purple",48,46.15384615,70.83333333,2,"TrialProc","Nontarget",229930,1,718,4,2
165,"purple",49,46.15384615,71.42857143,2,"TrialProc","Nontarget",233808,1,1068,4,2
165,"purple",50,46.15384615,72,2,"TrialProc","Nontarget",237101,1,841,4,2
165,"purple",51,46.15384615,72.54901961,2,"TrialProc","Nontarget",240461,1,679,4,2
165,"purple",52,50,73.07692308,1,"TrialProc","Target",243838,1,540,4,1
165,"purple",53,46.66666667,71.69811321,1,"TrialProc","Target",247834,0,1017,4,2
165,"purple",54,46.66666667,72.22222222,2,"TrialProc","Nontarget",250943,1,602,4,2
165,"purple",55,46.66666667,72.72727273,2,"TrialProc","Nontarget",254286,1,428,4,2
165,"purple",56,46.66666667,73.21428571,2,"TrialProc","Nontarget",257713,1,339,4,2
165,"purple",57,46.66666667,73.68421053,2,"TrialProc","Nontarget",261525,1,633,4,2
165,"purple",58,50,74.13793103,1,"TrialProc","Target",264918,1,502,4,1
165,"purple",59,50,74.57627119,2,"TrialProc","Nontarget",268261,1,324,4,2
165,"purple",60,50,75,2,"TrialProc","Nontarget",271905,1,438,4,2
165,"purple",61,50,75.40983607,2,"TrialProc","Nontarget",275616,1,617,4,2
165,"purple",62,50,75.80645161,2,"TrialProc","Nontarget",279277,1,755,4,2
165,"purple",63,50,76.19047619,2,"TrialProc","Nontarget",282788,1,744,4,2
165,"purple",64,50,76.5625,2,"TrialProc","Nontarget",285981,1,409,4,2
165,"red",1,0,100,2,"TrialProc","Nontarget",49801,1,747,2,2
165,"red",2,0,100,2,"TrialProc","Nontarget",53562,1,987,2,2
165,"red",3,0,100,2,"TrialProc","Nontarget",56855,1,759,2,2
165,"red",4,0,100,2,"TrialProc","Nontarget",60383,1,751,2,2
165,"red",5,0,100,2,"TrialProc","Nontarget",64010,1,864,2,2
165,"red",6,0,100,2,"TrialProc","Nontarget",67270,1,605,2,2
165,"red",7,0,100,2,"TrialProc","Nontarget",70847,1,665,2,2
165,"red",8,100,100,1,"TrialProc","Target",74425,1,719,2,1
165,"red",9,100,100,2,"TrialProc","Nontarget",77735,1,516,2,2
165,"red",10,100,100,2,"TrialProc","Nontarget",81429,1,687,2,2
165,"red",11,100,100,2,"TrialProc","Nontarget",84939,1,672,2,2
165,"red",12,100,100,1,"TrialProc","Target",88199,1,405,2,1
165,"red",13,100,100,1,"TrialProc","Target",91793,1,468,2,1
165,"red",14,100,100,2,"TrialProc","Lure",95772,1,924,2,2
165,"red",15,100,100,2,"TrialProc","Nontarget",99232,1,851,2,2
165,"red",16,100,100,1,"TrialProc","Target",102358,1,455,2,1
165,"red",17,100,100,2,"TrialProc","Nontarget",106186,1,752,2,2
165,"red",18,100,100,2,"TrialProc","Nontarget",109546,1,593,2,2
165,"red",19,100,100,2,"TrialProc","Nontarget",113274,1,811,2,2
165,"red",20,100,100,1,"TrialProc","Target",116484,1,516,2,1
165,"red",21,100,100,2,"TrialProc","Nontarget",120295,1,814,2,2
165,"red",22,100,95.45454545,2,"TrialProc","Lure",124491,0,0,2,NA
165,"red",23,100,95.65217391,2,"TrialProc","Nontarget",127249,1,734,2,2
165,"red",24,100,95.83333333,1,"TrialProc","Target",130593,1,566,2,1
165,"red",25,100,96,1,"TrialProc","Target",133986,1,438,2,1
165,"red",26,100,96.15384615,2,"TrialProc","Nontarget",137681,1,609,2,2
165,"red",27,100,96.2962963,2,"TrialProc","Nontarget",141392,1,796,2,2
165,"red",28,100,96.42857143,2,"TrialProc","Lure",144568,1,454,2,2
165,"red",29,100,93.10344828,2,"TrialProc","Lure",148346,0,709,2,1
165,"red",30,100,93.33333333,2,"TrialProc","Nontarget",151656,1,493,2,2
165,"red",31,100,93.5483871,1,"TrialProc","Target",155150,1,456,2,1
165,"red",32,100,93.75,1,"TrialProc","Target",158660,1,438,2,1
165,"red",33,100,93.93939394,1,"TrialProc","Target",162304,1,555,2,1
165,"red",34,100,94.11764706,2,"TrialProc","Nontarget",165848,1,569,2,2
165,"red",35,100,94.28571429,1,"TrialProc","Target",169242,1,445,2,1
165,"red",36,100,94.44444444,2,"TrialProc","Nontarget",172669,1,365,2,2
165,"red",37,100,94.59459459,2,"TrialProc","Nontarget",176430,1,604,2,2
165,"red",38,100,94.73684211,1,"TrialProc","Target",179790,1,437,2,1
165,"red",39,100,94.87179487,2,"TrialProc","Nontarget",183368,1,499,2,2
165,"red",40,100,95,2,"TrialProc","Nontarget",186978,1,584,2,2
165,"red",41,100,95.12195122,2,"TrialProc","Lure",190455,1,541,2,2
165,"red",42,100,95.23809524,2,"TrialProc","Nontarget",194166,1,720,2,2
165,"red",43,100,95.34883721,2,"TrialProc","Nontarget",197543,1,569,2,2
165,"red",44,100,95.45454545,1,"TrialProc","Target",201237,1,743,2,1
165,"red",45,100,95.55555556,2,"TrialProc","Nontarget",204581,1,562,2,2
165,"red",46,100,95.65217391,2,"TrialProc","Nontarget",208225,1,695,2,2
165,"red",47,100,95.74468085,2,"TrialProc","Nontarget",211702,1,662,2,2
165,"red",48,100,95.83333333,1,"TrialProc","Target",215062,1,513,2,1
165,"red",49,100,95.91836735,2,"TrialProc","Nontarget",218874,1,804,2,2
165,"red",50,100,96,2,"TrialProc","Nontarget",222134,1,549,2,2
165,"red",51,100,96.07843137,1,"TrialProc","Target",225493,1,396,2,1
165,"red",52,100,96.15384615,2,"TrialProc","Nontarget",229271,1,657,2,2
165,"red",53,100,96.22641509,2,"TrialProc","Nontarget",232949,1,811,2,2
165,"red",54,100,96.2962963,2,"TrialProc","Lure",236276,1,628,2,2
165,"red",55,100,96.36363636,2,"TrialProc","Nontarget",239836,1,681,2,2
165,"red",56,100,96.42857143,2,"TrialProc","Nontarget",243313,1,636,2,2
165,"red",57,100,96.49122807,1,"TrialProc","Target",246673,1,482,2,1
165,"red",58,100,96.55172414,2,"TrialProc","Nontarget",250485,1,768,2,2
165,"red",59,100,96.61016949,2,"TrialProc","Nontarget",253979,1,749,2,2
165,"red",60,100,96.66666667,2,"TrialProc","Nontarget",257790,1,1048,2,2
165,"red",61,100,95.08196721,2,"TrialProc","Nontarget",261752,0,0,2,NA
165,"red",62,100,95.16129032,2,"TrialProc","Nontarget",264961,1,1194,2,2
165,"red",63,100,95.23809524,2,"TrialProc","Nontarget",268271,1,971,2,2
165,"red",64,100,95.3125,2,"TrialProc","Nontarget",271849,1,1023,2,2
166,"black",1,0,0,2,"TrialProc","Nontarget",263860,0,1433,1,1
166,"black",2,0,50,2,"TrialProc","Nontarget",267220,1,1279,1,2
166,"black",3,0,66.66666667,2,"TrialProc","Nontarget",270262,1,803,1,2
166,"black",4,0,75,2,"TrialProc","Nontarget",273890,1,909,1,2
166,"black",5,0,60,2,"TrialProc","Lure",277133,0,632,1,1
166,"black",6,100,66.66666667,1,"TrialProc","Target",280644,1,631,1,1
166,"black",7,100,71.42857143,2,"TrialProc","Nontarget",284070,1,537,1,2
166,"black",8,100,75,2,"TrialProc","Nontarget",287648,1,600,1,2
166,"black",9,100,77.77777778,2,"TrialProc","Nontarget",291526,1,956,1,2
166,"black",10,100,80,1,"TrialProc","Target",295003,1,905,1,1
166,"black",11,100,81.81818182,2,"TrialProc","Nontarget",298163,1,537,1,2
166,"black",12,100,75,2,"TrialProc","Lure",301991,0,839,1,1
166,"black",13,100,76.92307692,2,"TrialProc","Nontarget",305351,1,682,1,2
166,"black",14,100,71.42857143,2,"TrialProc","Lure",309145,0,965,1,1
166,"black",15,100,73.33333333,2,"TrialProc","Nontarget",312907,1,1218,1,2
166,"black",16,100,68.75,2,"TrialProc","Lure",316016,0,806,1,1
166,"black",17,100,70.58823529,2,"TrialProc","Nontarget",319761,1,1029,1,2
166,"black",18,100,66.66666667,2,"TrialProc","Nontarget",322970,0,722,1,1
166,"black",19,100,68.42105263,1,"TrialProc","Target",326347,1,581,1,1
166,"black",20,100,70,2,"TrialProc","Nontarget",329824,1,543,1,2
166,"black",21,75,66.66666667,1,"TrialProc","Target",333251,0,454,1,2
166,"black",22,75,68.18181818,2,"TrialProc","Nontarget",337079,1,759,1,2
166,"black",23,75,65.2173913,2,"TrialProc","Nontarget",340473,0,628,1,1
166,"black",24,75,66.66666667,2,"TrialProc","Nontarget",344033,1,668,1,2
166,"black",25,80,68,1,"TrialProc","Target",347443,1,557,1,1
166,"black",26,80,65.38461538,2,"TrialProc","Nontarget",351355,0,943,1,1
166,"black",27,83.33333333,66.66666667,1,"TrialProc","Target",354648,1,703,1,1
166,"black",28,85.71428571,67.85714286,1,"TrialProc","Target",358042,1,568,1,1
166,"black",29,85.71428571,65.51724138,2,"TrialProc","Nontarget",361786,0,799,1,1
166,"black",30,85.71428571,63.33333333,2,"TrialProc","Nontarget",365297,0,799,1,1
166,"black",31,87.5,64.51612903,1,"TrialProc","Target",368657,1,636,1,1
166,"black",32,87.5,62.5,2,"TrialProc","Nontarget",372368,0,831,1,1
166,"black",33,87.5,63.63636364,2,"TrialProc","Nontarget",376096,1,1035,1,2
166,"black",34,87.5,61.76470588,2,"TrialProc","Nontarget",380074,0,0,1,NA
166,"black",35,87.5,60,2,"TrialProc","Lure",382732,0,649,1,1
166,"black",36,88.88888889,61.11111111,1,"TrialProc","Target",386427,1,831,1,1
166,"black",37,88.88888889,59.45945946,2,"TrialProc","Nontarget",389837,0,729,1,1
166,"black",38,90,60.52631579,1,"TrialProc","Target",393180,1,565,1,1
166,"black",39,90,61.53846154,2,"TrialProc","Nontarget",396758,1,627,1,2
166,"black",40,90.90909091,62.5,1,"TrialProc","Target",400285,1,626,1,1
166,"black",41,90.90909091,60.97560976,2,"TrialProc","Nontarget",404046,0,859,1,1
166,"black",42,90.90909091,59.52380952,2,"TrialProc","Lure",407440,0,724,1,1
166,"black",43,90.90909091,58.13953488,2,"TrialProc","Lure",410850,0,607,1,1
166,"black",44,90.90909091,56.81818182,2,"TrialProc","Nontarget",414310,0,546,1,1
166,"black",45,90.90909091,55.55555556,2,"TrialProc","Nontarget",417804,0,519,1,1
166,"black",46,90.90909091,56.52173913,2,"TrialProc","Nontarget",421515,1,706,1,2
166,"black",47,90.90909091,55.31914894,2,"TrialProc","Lure",425176,0,839,1,1
166,"black",48,91.66666667,56.25,1,"TrialProc","Target",428302,1,442,1,1
166,"black",49,91.66666667,55.10204082,2,"TrialProc","Nontarget",432147,0,755,1,1
166,"black",50,91.66666667,54,2,"TrialProc","Nontarget",435758,0,834,1,1
166,"black",51,92.30769231,54.90196078,1,"TrialProc","Target",438900,1,457,1,1
166,"black",52,92.85714286,55.76923077,1,"TrialProc","Target",442461,1,482,1,1
166,"black",53,92.85714286,54.71698113,2,"TrialProc","Nontarget",446155,0,660,1,1
166,"black",54,92.85714286,53.7037037,2,"TrialProc","Nontarget",449733,0,718,1,1
166,"black",55,92.85714286,52.72727273,2,"TrialProc","Nontarget",453143,0,605,1,1
166,"black",56,93.33333333,53.57142857,1,"TrialProc","Target",456520,1,456,1,1
166,"black",57,93.33333333,52.63157895,2,"TrialProc","Nontarget",460298,0,714,1,1
166,"black",58,93.33333333,51.72413793,2,"TrialProc","Nontarget",463758,0,652,1,1
166,"black",59,93.33333333,50.84745763,2,"TrialProc","Nontarget",467235,0,608,1,1
166,"black",60,93.33333333,50,2,"TrialProc","Nontarget",470829,0,669,1,1
166,"black",61,93.33333333,49.18032787,2,"TrialProc","Nontarget",474457,0,782,1,1
166,"black",62,93.33333333,48.38709677,2,"TrialProc","Nontarget",477850,0,658,1,1
166,"black",63,93.75,49.20634921,1,"TrialProc","Target",481210,1,495,1,1
166,"black",64,93.75,50,2,"TrialProc","Nontarget",485089,1,853,1,2
166,"blue",1,0,100,2,"TrialProc","Nontarget",72892,1,434,3,2
166,"blue",2,0,100,2,"TrialProc","Nontarget",76386,1,408,3,2
166,"blue",3,0,100,2,"TrialProc","Nontarget",79846,1,338,3,2
166,"blue",4,0,75,2,"TrialProc","Lure",83724,0,693,3,1
166,"blue",5,0,80,2,"TrialProc","Nontarget",86967,1,410,3,2
166,"blue",6,0,83.33333333,2,"TrialProc","Nontarget",90628,1,562,3,2
166,"blue",7,0,85.71428571,2,"TrialProc","Nontarget",94055,1,471,3,2
166,"blue",8,0,87.5,2,"TrialProc","Nontarget",97566,1,453,3,2
166,"blue",9,0,88.88888889,2,"TrialProc","Nontarget",101745,1,1113,3,2
166,"blue",10,100,90,1,"TrialProc","Target",105005,1,865,3,1
166,"blue",11,100,81.81818182,2,"TrialProc","Lure",108666,0,1007,3,1
166,"blue",12,100,83.33333333,2,"TrialProc","Nontarget",111708,1,533,3,2
166,"blue",13,100,84.61538462,2,"TrialProc","Nontarget",115570,1,883,3,2
166,"blue",14,100,85.71428571,2,"TrialProc","Nontarget",118963,1,761,3,2
166,"blue",15,100,86.66666667,2,"TrialProc","Nontarget",122290,1,552,3,2
166,"blue",16,100,87.5,1,"TrialProc","Target",126001,1,748,3,1
166,"blue",17,100,88.23529412,2,"TrialProc","Nontarget",129327,1,566,3,2
166,"blue",18,100,88.88888889,2,"TrialProc","Nontarget",132855,1,567,3,2
166,"blue",19,100,84.21052632,2,"TrialProc","Lure",136850,0,1043,3,1
166,"blue",20,100,85,2,"TrialProc","Lure",140812,1,1481,3,2
166,"blue",21,100,85.71428571,1,"TrialProc","Target",143904,1,1060,3,1
166,"blue",22,100,86.36363636,2,"TrialProc","Nontarget",147532,1,1158,3,2
166,"blue",23,75,82.60869565,1,"TrialProc","Target",151393,0,0,3,NA
166,"blue",24,75,83.33333333,2,"TrialProc","Nontarget",154102,1,692,3,2
166,"blue",25,75,84,2,"TrialProc","Nontarget",157913,1,969,3,2
166,"blue",26,80,84.61538462,1,"TrialProc","Target",161156,1,699,3,1
166,"blue",27,80,85.18518519,2,"TrialProc","Nontarget",164466,1,499,3,2
166,"blue",28,80,85.71428571,2,"TrialProc","Nontarget",168010,1,523,3,2
166,"blue",29,80,86.20689655,2,"TrialProc","Nontarget",171972,1,953,3,2
166,"blue",30,66.66666667,83.33333333,1,"TrialProc","Target",175031,0,494,3,2
166,"blue",31,71.42857143,83.87096774,1,"TrialProc","Target",178759,1,703,3,1
166,"blue",32,71.42857143,84.375,2,"TrialProc","Nontarget",182738,1,1168,3,2
166,"blue",33,71.42857143,84.84848485,2,"TrialProc","Nontarget",186348,1,1265,3,2
166,"blue",34,71.42857143,85.29411765,2,"TrialProc","Nontarget",189357,1,758,3,2
166,"blue",35,75,85.71428571,1,"TrialProc","Target",192817,1,693,3,1
166,"blue",36,75,86.11111111,2,"TrialProc","Nontarget",196294,1,659,3,2
166,"blue",37,66.66666667,83.78378378,1,"TrialProc","Target",199822,0,666,3,2
166,"blue",38,66.66666667,84.21052632,2,"TrialProc","Nontarget",203265,1,588,3,2
166,"blue",39,70,84.61538462,1,"TrialProc","Target",206993,1,794,3,1
166,"blue",40,70,85,2,"TrialProc","Nontarget",210771,1,1038,3,2
166,"blue",41,70,85.36585366,2,"TrialProc","Nontarget",214633,1,1371,3,2
166,"blue",42,70,85.71428571,2,"TrialProc","Nontarget",217658,1,873,3,2
166,"blue",43,70,86.04651163,2,"TrialProc","Nontarget",221052,1,742,3,2
166,"blue",44,70,86.36363636,2,"TrialProc","Nontarget",224462,1,617,3,2
166,"blue",45,63.63636364,84.44444444,1,"TrialProc","Target",228106,0,734,3,2
166,"blue",46,63.63636364,84.7826087,2,"TrialProc","Nontarget",231785,1,901,3,2
166,"blue",47,66.66666667,85.10638298,1,"TrialProc","Target",235228,1,831,3,1
166,"blue",48,66.66666667,85.41666667,2,"TrialProc","Nontarget",238655,1,734,3,2
166,"blue",49,66.66666667,85.71428571,2,"TrialProc","Nontarget",242349,1,910,3,2
166,"blue",50,66.66666667,86,2,"TrialProc","Nontarget",246060,1,1086,3,2
166,"blue",51,66.66666667,86.2745098,2,"TrialProc","Nontarget",249738,1,1238,3,2
166,"blue",52,66.66666667,86.53846154,2,"TrialProc","Nontarget",252730,1,711,3,2
166,"blue",53,66.66666667,84.90566038,2,"TrialProc","Nontarget",256291,0,759,3,1
166,"blue",54,69.23076923,85.18518519,1,"TrialProc","Target",260420,1,1356,3,1
166,"blue",55,69.23076923,85.45454545,2,"TrialProc","Nontarget",263312,1,732,3,2
166,"blue",56,69.23076923,85.71428571,2,"TrialProc","Nontarget",266672,1,578,3,2
166,"blue",57,71.42857143,85.96491228,1,"TrialProc","Target",270651,1,1051,3,1
166,"blue",58,73.33333333,86.20689655,1,"TrialProc","Target",274094,1,975,3,1
166,"blue",59,68.75,84.74576271,1,"TrialProc","Target",277437,0,789,3,2
166,"blue",60,68.75,85,2,"TrialProc","Nontarget",280781,1,611,3,2
166,"blue",61,68.75,85.24590164,2,"TrialProc","Nontarget",284241,1,562,3,2
166,"blue",62,68.75,85.48387097,2,"TrialProc","Nontarget",287952,1,756,3,2
166,"blue",63,68.75,85.71428571,2,"TrialProc","Nontarget",291429,1,707,3,2
166,"blue",64,68.75,85.9375,2,"TrialProc","Lure",294689,1,433,3,2
166,"purple",1,0,100,2,"TrialProc","Nontarget",220436,1,260,4,2
166,"purple",2,0,100,2,"TrialProc","Nontarget",224080,1,394,4,2
166,"purple",3,0,100,2,"TrialProc","Nontarget",227507,1,306,4,2
166,"purple",4,0,100,2,"TrialProc","Nontarget",231251,1,520,4,2
166,"purple",5,0,100,2,"TrialProc","Nontarget",234695,1,436,4,2
166,"purple",6,0,100,2,"TrialProc","Nontarget",238322,1,549,4,2
166,"purple",7,0,85.71428571,1,"TrialProc","Target",241967,0,679,4,2
166,"purple",8,0,87.5,2,"TrialProc","Nontarget",245243,1,443,4,2
166,"purple",9,50,88.88888889,1,"TrialProc","Target",249740,1,1431,4,1
166,"purple",10,50,90,2,"TrialProc","Nontarget",252833,1,1014,4,2
166,"purple",11,66.66666667,90.90909091,1,"TrialProc","Target",256243,1,910,4,1
166,"purple",12,66.66666667,91.66666667,2,"TrialProc","Nontarget",259469,1,612,4,2
166,"purple",13,75,92.30769231,1,"TrialProc","Target",263531,1,1165,4,1
166,"purple",14,75,92.85714286,2,"TrialProc","Nontarget",266390,1,502,4,2
166,"purple",15,75,93.33333333,2,"TrialProc","Nontarget",270218,1,809,4,2
166,"purple",16,75,93.75,2,"TrialProc","Nontarget",273394,1,463,4,2
166,"purple",17,75,94.11764706,2,"TrialProc","Nontarget",277038,1,589,4,2
166,"purple",18,75,88.88888889,2,"TrialProc","Nontarget",280549,0,582,4,1
166,"purple",19,75,89.47368421,2,"TrialProc","Nontarget",284076,1,590,4,2
166,"purple",20,75,85,2,"TrialProc","Lure",288222,0,1211,4,1
166,"purple",21,75,85.71428571,2,"TrialProc","Nontarget",290980,1,447,4,2
166,"purple",22,60,81.81818182,1,"TrialProc","Target",294942,0,889,4,2
166,"purple",23,60,82.60869565,2,"TrialProc","Nontarget",298101,1,526,4,2
166,"purple",24,60,83.33333333,2,"TrialProc","Nontarget",301595,1,513,4,2
166,"purple",25,60,84,2,"TrialProc","Nontarget",305055,1,451,4,2
166,"purple",26,60,84.61538462,2,"TrialProc","Nontarget",308767,1,642,4,2
166,"purple",27,60,81.48148148,2,"TrialProc","Nontarget",313146,0,0,4,NA
166,"purple",28,60,82.14285714,2,"TrialProc","Nontarget",316389,1,1231,4,2
166,"purple",29,60,82.75862069,2,"TrialProc","Nontarget",319582,1,907,4,2
166,"purple",30,50,80,1,"TrialProc","Target",322441,0,238,4,2
166,"purple",31,57.14285714,80.64516129,1,"TrialProc","Target",326587,1,857,4,1
166,"purple",32,57.14285714,81.25,2,"TrialProc","Nontarget",329813,1,562,4,2
166,"purple",33,57.14285714,81.81818182,2,"TrialProc","Lure",333641,1,874,4,2
166,"purple",34,57.14285714,82.35294118,2,"TrialProc","Nontarget",336984,1,688,4,2
166,"purple",35,57.14285714,82.85714286,2,"TrialProc","Nontarget",340512,1,697,4,2
166,"purple",36,57.14285714,80.55555556,2,"TrialProc","Nontarget",344707,0,1373,4,1
166,"purple",37,57.14285714,81.08108108,2,"TrialProc","Nontarget",347416,1,565,4,2
166,"purple",38,50,78.94736842,1,"TrialProc","Target",350976,0,612,4,2
166,"purple",39,50,79.48717949,2,"TrialProc","Nontarget",354587,1,706,4,2
166,"purple",40,50,80,2,"TrialProc","Nontarget",357997,1,585,4,2
166,"purple",41,55.55555556,80.48780488,1,"TrialProc","Target",361959,1,1031,4,1
166,"purple",42,50,78.57142857,1,"TrialProc","Target",365938,0,0,4,NA
166,"purple",43,50,76.74418605,2,"TrialProc","Nontarget",368846,0,887,4,1
166,"purple",44,50,77.27272727,2,"TrialProc","Nontarget",372474,1,996,4,2
166,"purple",45,50,77.77777778,2,"TrialProc","Nontarget",375851,1,857,4,2
166,"purple",46,50,78.26086957,2,"TrialProc","Nontarget",379060,1,546,4,2
166,"purple",47,45.45454545,76.59574468,1,"TrialProc","Target",382671,0,650,4,2
166,"purple",48,45.45454545,77.08333333,2,"TrialProc","Nontarget",386165,1,620,4,2
166,"purple",49,50,77.55102041,1,"TrialProc","Target",390077,1,1010,4,1
166,"purple",50,50,78,2,"TrialProc","Lure",393336,1,738,4,2
166,"purple",51,50,78.43137255,2,"TrialProc","Nontarget",396880,1,752,4,2
166,"purple",52,53.84615385,78.84615385,1,"TrialProc","Target",400575,1,931,4,1
166,"purple",53,53.84615385,79.24528302,2,"TrialProc","Nontarget",403901,1,747,4,2
166,"purple",54,53.84615385,79.62962963,2,"TrialProc","Nontarget",407362,1,699,4,2
166,"purple",55,53.84615385,80,2,"TrialProc","Nontarget",411006,1,824,4,2
166,"purple",56,57.14285714,80.35714286,1,"TrialProc","Target",414383,1,675,4,1
166,"purple",57,57.14285714,78.94736842,2,"TrialProc","Nontarget",418278,0,1041,4,1
166,"purple",58,57.14285714,79.31034483,2,"TrialProc","Nontarget",421504,1,745,4,2
166,"purple",59,57.14285714,79.66101695,2,"TrialProc","Nontarget",424780,1,506,4,2
166,"purple",60,60,80,1,"TrialProc","Target",428692,1,890,4,1
166,"purple",61,56.25,78.68852459,1,"TrialProc","Target",432002,0,683,4,2
166,"purple",62,56.25,79.03225806,2,"TrialProc","Nontarget",435412,1,582,4,2
166,"purple",63,56.25,79.36507937,2,"TrialProc","Nontarget",439056,1,707,4,2
166,"purple",64,56.25,79.6875,2,"TrialProc","Nontarget",442517,1,649,4,2
166,"red",1,0,100,2,"TrialProc","Nontarget",213481,1,325,2,2
166,"red",2,0,100,2,"TrialProc","Nontarget",217259,1,583,2,2
166,"red",3,0,100,2,"TrialProc","Nontarget",220970,1,774,2,2
166,"red",4,0,100,2,"TrialProc","Nontarget",224497,1,775,2,2
166,"red",5,0,100,2,"TrialProc","Nontarget",228008,1,751,2,2
166,"red",6,0,100,2,"TrialProc","Nontarget",231485,1,713,2,2
166,"red",7,0,85.71428571,2,"TrialProc","Nontarget",235096,0,811,2,1
166,"red",8,100,87.5,1,"TrialProc","Target",239108,1,1304,2,1
166,"red",9,100,88.88888889,2,"TrialProc","Nontarget",242718,1,1398,2,2
166,"red",10,100,90,2,"TrialProc","Nontarget",245995,1,1153,2,2
166,"red",11,100,90.90909091,2,"TrialProc","Nontarget",249238,1,883,2,2
166,"red",12,100,91.66666667,1,"TrialProc","Target",252682,1,804,2,1
166,"red",13,100,92.30769231,1,"TrialProc","Target",256075,1,680,2,1
166,"red",14,100,92.85714286,2,"TrialProc","Lure",259769,1,863,2,2
166,"red",15,100,86.66666667,2,"TrialProc","Nontarget",263648,0,1229,2,1
166,"red",16,100,87.5,1,"TrialProc","Target",266907,1,984,2,1
166,"red",17,100,88.23529412,2,"TrialProc","Nontarget",270535,1,1094,2,2
166,"red",18,100,88.88888889,2,"TrialProc","Nontarget",273694,1,719,2,2
166,"red",19,100,89.47368421,2,"TrialProc","Nontarget",277171,1,671,2,2
166,"red",20,100,90,1,"TrialProc","Target",280816,1,785,2,1
166,"red",21,100,90.47619048,2,"TrialProc","Nontarget",284460,1,911,2,2
166,"red",22,100,86.36363636,2,"TrialProc","Lure",287987,0,934,2,1
166,"red",23,100,86.95652174,2,"TrialProc","Nontarget",291615,1,1043,2,2
166,"red",24,100,87.5,1,"TrialProc","Target",294941,1,846,2,1
166,"red",25,100,88,1,"TrialProc","Target",298586,1,975,2,1
166,"red",26,100,88.46153846,2,"TrialProc","Nontarget",301912,1,771,2,2
166,"red",27,100,88.88888889,2,"TrialProc","Nontarget",305540,1,882,2,2
166,"red",28,100,89.28571429,2,"TrialProc","Lure",309117,1,946,2,2
166,"red",29,100,86.20689655,2,"TrialProc","Lure",312511,0,819,2,1
166,"red",30,100,86.66666667,2,"TrialProc","Nontarget",316222,1,1006,2,2
166,"red",31,87.5,83.87096774,1,"TrialProc","Target",320033,0,1298,2,2
166,"red",32,88.88888889,84.375,1,"TrialProc","Target",323092,1,843,2,1
166,"red",33,90,84.84848485,1,"TrialProc","Target",326803,1,1026,2,1
166,"red",34,90,85.29411765,2,"TrialProc","Nontarget",329846,1,539,2,2
166,"red",35,90.90909091,85.71428571,1,"TrialProc","Target",333473,1,643,2,1
166,"red",36,90.90909091,86.11111111,2,"TrialProc","Nontarget",336917,1,580,2,2
166,"red",37,90.90909091,86.48648649,2,"TrialProc","Nontarget",340578,1,730,2,2
166,"red",38,83.33333333,84.21052632,1,"TrialProc","Target",344456,0,1090,2,2
166,"red",39,83.33333333,84.61538462,2,"TrialProc","Nontarget",347866,1,976,2,2
166,"red",40,83.33333333,85,2,"TrialProc","Nontarget",351544,1,1126,2,2
166,"red",41,83.33333333,82.92682927,2,"TrialProc","Lure",354837,0,886,2,1
166,"red",42,83.33333333,83.33333333,2,"TrialProc","Nontarget",358398,1,933,2,2
166,"red",43,83.33333333,81.39534884,2,"TrialProc","Nontarget",362477,0,0,2,NA
166,"red",44,84.61538462,81.81818182,1,"TrialProc","Target",365285,1,795,2,1
166,"red",45,84.61538462,82.22222222,2,"TrialProc","Nontarget",368712,1,708,2,2
166,"red",46,84.61538462,82.60869565,2,"TrialProc","Nontarget",372657,1,1132,2,2
166,"red",47,84.61538462,82.9787234,2,"TrialProc","Nontarget",375783,1,748,2,2
166,"red",48,85.71428571,83.33333333,1,"TrialProc","Target",379444,1,895,2,1
166,"red",49,85.71428571,83.67346939,2,"TrialProc","Nontarget",383490,1,1421,2,2
166,"red",50,85.71428571,84,2,"TrialProc","Nontarget",386348,1,755,2,2
166,"red",51,86.66666667,84.31372549,1,"TrialProc","Target",389976,1,867,2,1
166,"red",52,86.66666667,84.61538462,2,"TrialProc","Nontarget",393436,1,814,2,2
166,"red",53,86.66666667,84.90566038,2,"TrialProc","Nontarget",396997,1,865,2,2
166,"red",54,86.66666667,83.33333333,2,"TrialProc","Lure",400608,0,967,2,1
166,"red",55,86.66666667,83.63636364,2,"TrialProc","Nontarget",403717,1,564,2,2
166,"red",56,86.66666667,83.92857143,2,"TrialProc","Nontarget",407211,1,549,2,2
166,"red",57,87.5,84.21052632,1,"TrialProc","Target",410721,1,549,2,1
166,"red",58,87.5,84.48275862,2,"TrialProc","Nontarget",414332,1,638,2,2
166,"red",59,87.5,84.74576271,2,"TrialProc","Nontarget",418127,1,908,2,2
166,"red",60,87.5,85,2,"TrialProc","Nontarget",421788,1,1036,2,2
166,"red",61,87.5,85.24590164,2,"TrialProc","Nontarget",425014,1,737,2,2
166,"red",62,87.5,83.87096774,2,"TrialProc","Nontarget",429293,0,0,2,NA
166,"red",63,87.5,84.12698413,2,"TrialProc","Nontarget",432352,1,1047,2,2
166,"red",64,87.5,82.8125,2,"TrialProc","Nontarget",435680,0,867,2,1
167,"black",1,0,0,2,"TrialProc","Nontarget",134484,0,0,1,NA
167,"black",2,0,0,2,"TrialProc","Nontarget",138016,0,0,1,NA
167,"black",3,0,0,2,"TrialProc","Nontarget",141549,0,0,1,NA
167,"black",4,0,25,2,"TrialProc","Nontarget",144798,1,1209,1,2
167,"black",5,0,40,2,"TrialProc","Lure",148014,1,897,1,2
167,"black",6,100,50,1,"TrialProc","Target",151247,1,603,1,1
167,"black",7,100,57.14285714,2,"TrialProc","Nontarget",154679,1,504,1,2
167,"black",8,100,62.5,2,"TrialProc","Nontarget",158178,1,481,1,2
167,"black",9,100,66.66666667,2,"TrialProc","Nontarget",161878,1,642,1,2
167,"black",10,100,70,1,"TrialProc","Target",165343,1,574,1,1
167,"black",11,100,72.72727273,2,"TrialProc","Nontarget",169143,1,860,1,2
167,"black",12,100,75,2,"TrialProc","Lure",172409,1,605,1,2
167,"black",13,100,76.92307692,2,"TrialProc","Nontarget",175924,1,578,1,2
167,"black",14,100,78.57142857,2,"TrialProc","Lure",179591,1,724,1,2
167,"black",15,100,80,2,"TrialProc","Nontarget",183056,1,678,1,2
167,"black",16,100,81.25,2,"TrialProc","Lure",186439,1,526,1,2
167,"black",17,100,82.35294118,2,"TrialProc","Nontarget",189938,1,504,1,2
167,"black",18,100,83.33333333,2,"TrialProc","Nontarget",193620,1,658,1,2
167,"black",19,100,84.21052632,1,"TrialProc","Target",197136,1,654,1,1
167,"black",20,100,85,2,"TrialProc","Nontarget",200419,1,409,1,2
167,"black",21,100,85.71428571,1,"TrialProc","Target",204051,1,516,1,1
167,"black",22,100,86.36363636,2,"TrialProc","Nontarget",207517,1,455,1,2
167,"black",23,100,86.95652174,2,"TrialProc","Nontarget",210966,1,385,1,2
167,"black",24,100,87.5,2,"TrialProc","Nontarget",214799,1,672,1,2
167,"black",25,100,88,1,"TrialProc","Target",218281,1,636,1,1
167,"black",26,100,88.46153846,2,"TrialProc","Nontarget",221697,1,514,1,2
167,"black",27,100,88.88888889,1,"TrialProc","Target",225330,1,617,1,1
167,"black",28,100,89.28571429,1,"TrialProc","Target",229529,1,1283,1,1
167,"black",29,100,89.65517241,2,"TrialProc","Nontarget",232428,1,642,1,2
167,"black",30,100,90,2,"TrialProc","Nontarget",235744,1,437,1,2
167,"black",31,100,90.32258065,1,"TrialProc","Target",239360,1,522,1,1
167,"black",32,100,90.625,2,"TrialProc","Nontarget",242926,1,547,1,2
167,"black",33,100,90.90909091,2,"TrialProc","Nontarget",246425,1,517,1,2
167,"black",34,100,91.17647059,2,"TrialProc","Nontarget",249957,1,517,1,2
167,"black",35,100,91.42857143,2,"TrialProc","Lure",253556,1,588,1,2
167,"black",36,100,91.66666667,1,"TrialProc","Target",257122,1,636,1,1
167,"black",37,100,91.89189189,2,"TrialProc","Nontarget",260588,1,569,1,2
167,"black",38,100,92.10526316,1,"TrialProc","Target",263987,1,432,1,1
167,"black",39,100,92.30769231,2,"TrialProc","Nontarget",267587,1,502,1,2
167,"black",40,100,92.5,1,"TrialProc","Target",271102,1,485,1,1
167,"black",41,100,92.68292683,2,"TrialProc","Nontarget",274502,1,355,1,2
167,"black",42,100,92.85714286,2,"TrialProc","Lure",278167,1,488,1,2
167,"black",43,100,93.02325581,2,"TrialProc","Lure",281700,1,474,1,2
167,"black",44,100,93.18181818,2,"TrialProc","Nontarget",285316,1,573,1,2
167,"black",45,100,93.33333333,2,"TrialProc","Nontarget",288748,1,485,1,2
167,"black",46,100,93.47826087,2,"TrialProc","Nontarget",292348,1,548,1,2
167,"black",47,100,93.61702128,2,"TrialProc","Lure",295697,1,373,1,2
167,"black",48,100,93.75,1,"TrialProc","Target",299279,1,435,1,1
167,"black",49,100,93.87755102,2,"TrialProc","Nontarget",302845,1,472,1,2
167,"black",50,100,94,2,"TrialProc","Nontarget",306278,1,384,1,2
167,"black",51,100,94.11764706,1,"TrialProc","Target",310077,1,647,1,1
167,"black",52,100,94.23076923,1,"TrialProc","Target",313543,1,588,1,1
167,"black",53,100,94.33962264,2,"TrialProc","Nontarget",317042,1,555,1,2
167,"black",54,100,94.44444444,2,"TrialProc","Nontarget",320558,1,531,1,2
167,"black",55,100,94.54545455,2,"TrialProc","Nontarget",324123,1,566,1,2
167,"black",56,100,94.64285714,1,"TrialProc","Target",327556,1,471,1,1
167,"black",57,100,94.73684211,2,"TrialProc","Nontarget",331272,1,638,1,2
167,"black",58,100,94.82758621,2,"TrialProc","Nontarget",334704,1,540,1,2
167,"black",59,100,94.91525424,2,"TrialProc","Nontarget",338287,1,609,1,2
167,"black",60,100,95,2,"TrialProc","Nontarget",341753,1,542,1,2
167,"black",61,100,95.08196721,2,"TrialProc","Nontarget",345352,1,613,1,2
167,"black",62,100,95.16129032,2,"TrialProc","Nontarget",348734,1,469,1,2
167,"black",63,100,95.23809524,1,"TrialProc","Target",352417,1,608,1,1
167,"black",64,100,95.3125,2,"TrialProc","Nontarget",355783,1,452,1,2
167,"blue",1,0,100,2,"TrialProc","Nontarget",57813,1,685,3,2
167,"blue",2,0,100,2,"TrialProc","Nontarget",61245,1,575,3,2
167,"blue",3,0,100,2,"TrialProc","Nontarget",64778,1,584,3,2
167,"blue",4,0,100,2,"TrialProc","Nontarget",68410,1,688,3,2
167,"blue",5,0,100,2,"TrialProc","Nontarget",71876,1,613,3,2
167,"blue",6,0,100,2,"TrialProc","Nontarget",75409,1,618,3,2
167,"blue",7,0,100,2,"TrialProc","Nontarget",78841,1,517,3,2
167,"blue",8,0,100,2,"TrialProc","Lure",82840,1,981,3,2
167,"blue",9,0,100,2,"TrialProc","Nontarget",86839,1,1446,3,2
167,"blue",10,0,100,2,"TrialProc","Nontarget",89789,1,868,3,2
167,"blue",11,0,100,2,"TrialProc","Nontarget",93188,1,728,3,2
167,"blue",12,100,100,1,"TrialProc","Target",96720,1,742,3,1
167,"blue",13,100,100,2,"TrialProc","Nontarget",100036,1,533,3,2
167,"blue",14,100,100,1,"TrialProc","Target",103519,1,482,3,1
167,"blue",15,100,100,2,"TrialProc","Nontarget",107185,1,611,3,2
167,"blue",16,100,100,1,"TrialProc","Target",110634,1,530,3,1
167,"blue",17,100,100,2,"TrialProc","Nontarget",114266,1,638,3,2
167,"blue",18,100,94.44444444,2,"TrialProc","Nontarget",118649,0,0,3,NA
167,"blue",19,100,94.73684211,2,"TrialProc","Lure",121815,1,1140,3,2
167,"blue",20,100,95,2,"TrialProc","Lure",125164,1,975,3,2
167,"blue",21,100,95.23809524,1,"TrialProc","Target",128280,1,562,3,1
167,"blue",22,100,95.45454545,2,"TrialProc","Nontarget",131679,1,425,3,2
167,"blue",23,100,95.65217391,2,"TrialProc","Nontarget",135212,1,426,3,2
167,"blue",24,100,95.83333333,2,"TrialProc","Nontarget",138861,1,552,3,2
167,"blue",25,100,96,2,"TrialProc","Nontarget",142477,1,624,3,2
167,"blue",26,100,96.15384615,2,"TrialProc","Nontarget",146009,1,629,3,2
167,"blue",27,100,96.2962963,1,"TrialProc","Target",149891,1,993,3,1
167,"blue",28,100,96.42857143,2,"TrialProc","Nontarget",153624,1,1196,3,2
167,"blue",29,100,96.55172414,1,"TrialProc","Target",156707,1,750,3,1
167,"blue",30,100,96.66666667,1,"TrialProc","Target",160356,1,867,3,1
167,"blue",31,100,96.77419355,2,"TrialProc","Nontarget",163772,1,748,3,2
167,"blue",32,100,96.875,2,"TrialProc","Nontarget",167254,1,698,3,2
167,"blue",33,100,96.96969697,2,"TrialProc","Nontarget",170687,1,600,3,2
167,"blue",34,100,97.05882353,1,"TrialProc","Target",174369,1,750,3,1
167,"blue",35,100,97.14285714,2,"TrialProc","Nontarget",177918,1,772,3,2
167,"blue",36,100,97.22222222,2,"TrialProc","Nontarget",181351,1,683,3,2
167,"blue",37,100,97.2972973,2,"TrialProc","Nontarget",184717,1,516,3,2
167,"blue",38,100,97.36842105,2,"TrialProc","Nontarget",188399,1,671,3,2
167,"blue",39,100,97.43589744,1,"TrialProc","Target",191849,1,580,3,1
167,"blue",40,100,97.5,2,"TrialProc","Nontarget",195298,1,495,3,2
167,"blue",41,100,97.56097561,1,"TrialProc","Target",199063,1,726,3,1
167,"blue",42,100,97.61904762,1,"TrialProc","Target",202413,1,542,3,1
167,"blue",43,100,97.6744186,2,"TrialProc","Nontarget",206112,1,711,3,2
167,"blue",44,100,97.72727273,2,"TrialProc","Nontarget",209844,1,919,3,2
167,"blue",45,100,97.77777778,1,"TrialProc","Target",212927,1,468,3,1
167,"blue",46,100,97.82608696,2,"TrialProc","Nontarget",216702,1,690,3,2
167,"blue",47,100,97.87234043,2,"TrialProc","Nontarget",220142,1,594,3,2
167,"blue",48,100,97.91666667,2,"TrialProc","Nontarget",223974,1,895,3,2
167,"blue",49,100,97.95918367,2,"TrialProc","Nontarget",227607,1,999,3,2
167,"blue",50,92.30769231,96,1,"TrialProc","Target",231240,0,1107,3,2
167,"blue",51,92.30769231,96.07843137,2,"TrialProc","Nontarget",234622,1,957,3,2
167,"blue",52,92.85714286,96.15384615,1,"TrialProc","Target",237771,1,585,3,1
167,"blue",53,92.85714286,96.22641509,2,"TrialProc","Nontarget",241454,1,738,3,2
167,"blue",54,92.85714286,96.2962963,2,"TrialProc","Nontarget",244853,1,602,3,2
167,"blue",55,92.85714286,96.36363636,2,"TrialProc","Lure",248702,1,918,3,2
167,"blue",56,92.85714286,94.64285714,2,"TrialProc","Nontarget",252818,0,0,3,NA
167,"blue",57,92.85714286,94.73684211,2,"TrialProc","Nontarget",255767,1,926,3,2
167,"blue",58,92.85714286,94.82758621,2,"TrialProc","Nontarget",259083,1,726,3,2
167,"blue",59,93.33333333,94.91525424,1,"TrialProc","Target",262715,1,835,3,1
167,"blue",60,93.75,95,1,"TrialProc","Target",266048,1,645,3,1
167,"blue",61,93.75,95.08196721,2,"TrialProc","Nontarget",269514,1,581,3,2
167,"blue",62,93.75,95.16129032,2,"TrialProc","Nontarget",273230,1,757,3,2
167,"blue",63,93.75,95.23809524,2,"TrialProc","Lure",276546,1,541,3,2
167,"blue",64,93.75,95.3125,2,"TrialProc","Nontarget",280128,1,602,3,2
167,"purple",1,0,100,2,"TrialProc","Nontarget",47266,1,429,4,2
167,"purple",2,0,100,2,"TrialProc","Nontarget",50815,1,445,4,2
167,"purple",3,0,100,2,"TrialProc","Nontarget",54198,1,309,4,2
167,"purple",4,0,100,2,"TrialProc","Nontarget",57697,1,292,4,2
167,"purple",5,0,100,2,"TrialProc","Nontarget",61379,1,455,4,2
167,"purple",6,0,100,2,"TrialProc","Nontarget",64962,1,513,4,2
167,"purple",7,0,85.71428571,1,"TrialProc","Target",68428,0,444,4,2
167,"purple",8,0,87.5,2,"TrialProc","Nontarget",72094,1,584,4,2
167,"purple",9,0,77.77777778,1,"TrialProc","Target",75626,0,585,4,2
167,"purple",10,0,80,2,"TrialProc","Nontarget",79125,1,556,4,2
167,"purple",11,33.33333333,81.81818182,1,"TrialProc","Target",82591,1,506,4,1
167,"purple",12,33.33333333,83.33333333,2,"TrialProc","Nontarget",86390,1,790,4,2
167,"purple",13,25,76.92307692,1,"TrialProc","Target",90306,0,1190,4,2
167,"purple",14,25,78.57142857,2,"TrialProc","Nontarget",93505,1,868,4,2
167,"purple",15,25,80,2,"TrialProc","Nontarget",96955,1,780,4,2
167,"purple",16,25,81.25,2,"TrialProc","Nontarget",100537,1,822,4,2
167,"purple",17,25,82.35294118,2,"TrialProc","Nontarget",103803,1,549,4,2
167,"purple",18,25,83.33333333,2,"TrialProc","Nontarget",107419,1,636,4,2
167,"purple",19,25,84.21052632,2,"TrialProc","Nontarget",110919,1,588,4,2
167,"purple",20,25,85,2,"TrialProc","Lure",115200,1,1338,4,2
167,"purple",21,25,85.71428571,2,"TrialProc","Nontarget",118750,1,1360,4,2
167,"purple",22,20,81.81818182,1,"TrialProc","Target",121782,0,865,4,2
167,"purple",23,20,82.60869565,2,"TrialProc","Nontarget",125498,1,1052,4,2
167,"purple",24,20,83.33333333,2,"TrialProc","Nontarget",128482,1,500,4,2
167,"purple",25,20,84,2,"TrialProc","Nontarget",132280,1,766,4,2
167,"purple",26,20,84.61538462,2,"TrialProc","Nontarget",135696,1,648,4,2
167,"purple",27,20,85.18518519,2,"TrialProc","Nontarget",139361,1,781,4,2
167,"purple",28,20,85.71428571,2,"TrialProc","Nontarget",142677,1,575,4,2
167,"purple",29,20,86.20689655,2,"TrialProc","Nontarget",146210,1,582,4,2
167,"purple",30,33.33333333,86.66666667,1,"TrialProc","Target",149776,1,617,4,1
167,"purple",31,42.85714286,87.09677419,1,"TrialProc","Target",153325,1,640,4,1
167,"purple",32,42.85714286,87.5,2,"TrialProc","Nontarget",156741,1,527,4,2
167,"purple",33,42.85714286,87.87878788,2,"TrialProc","Lure",160573,1,834,4,2
167,"purple",34,42.85714286,88.23529412,2,"TrialProc","Nontarget",163872,1,598,4,2
167,"purple",35,42.85714286,88.57142857,2,"TrialProc","Nontarget",167372,1,565,4,2
167,"purple",36,42.85714286,88.88888889,2,"TrialProc","Nontarget",170871,1,532,4,2
167,"purple",37,42.85714286,89.18918919,2,"TrialProc","Nontarget",174404,1,540,4,2
167,"purple",38,37.5,86.84210526,1,"TrialProc","Target",178119,0,731,4,2
167,"purple",39,37.5,87.17948718,2,"TrialProc","Nontarget",181502,1,587,4,2
167,"purple",40,37.5,87.5,2,"TrialProc","Nontarget",185634,1,1176,4,2
167,"purple",41,33.33333333,85.36585366,1,"TrialProc","Target",188683,0,707,4,2
167,"purple",42,30,83.33333333,1,"TrialProc","Target",192999,0,0,4,NA
167,"purple",43,30,83.72093023,2,"TrialProc","Nontarget",195698,1,667,4,2
167,"purple",44,30,84.09090909,2,"TrialProc","Nontarget",199364,1,803,4,2
167,"purple",45,30,84.44444444,2,"TrialProc","Nontarget",202980,1,878,4,2
167,"purple",46,30,84.7826087,2,"TrialProc","Nontarget",206080,1,452,4,2
167,"purple",47,27.27272727,82.9787234,1,"TrialProc","Target",209462,0,300,4,2
167,"purple",48,27.27272727,83.33333333,2,"TrialProc","Nontarget",213178,1,476,4,2
167,"purple",49,25,81.63265306,1,"TrialProc","Target",216710,0,489,4,2
167,"purple",50,25,80,2,"TrialProc","Lure",220393,0,652,4,1
167,"purple",51,25,80.39215686,2,"TrialProc","Nontarget",223875,1,596,4,2
167,"purple",52,23.07692308,78.84615385,1,"TrialProc","Target",227641,0,835,4,2
167,"purple",53,23.07692308,79.24528302,2,"TrialProc","Nontarget",231124,1,773,4,2
167,"purple",54,23.07692308,79.62962963,2,"TrialProc","Nontarget",234356,1,486,4,2
167,"purple",55,23.07692308,80,2,"TrialProc","Nontarget",237872,1,467,4,2
167,"purple",56,21.42857143,78.57142857,1,"TrialProc","Target",241421,0,484,4,2
167,"purple",57,21.42857143,78.94736842,2,"TrialProc","Nontarget",245320,1,852,4,2
167,"purple",58,21.42857143,79.31034483,2,"TrialProc","Nontarget",249037,1,1044,4,2
167,"purple",59,21.42857143,79.66101695,2,"TrialProc","Nontarget",252719,1,1197,4,2
167,"purple",60,26.66666667,80,1,"TrialProc","Target",255868,1,809,4,1
167,"purple",61,25,78.68852459,1,"TrialProc","Target",259884,0,1290,4,2
167,"purple",62,25,79.03225806,2,"TrialProc","Nontarget",263066,1,956,4,2
167,"purple",63,25,79.36507937,2,"TrialProc","Nontarget",266482,1,852,4,2
167,"purple",64,25,78.125,2,"TrialProc","Nontarget",270315,0,1147,4,1
167,"red",1,0,100,2,"TrialProc","Nontarget",46395,1,535,2,2
167,"red",2,0,100,2,"TrialProc","Nontarget",49994,1,610,2,2
167,"red",3,0,100,2,"TrialProc","Nontarget",53544,1,634,2,2
167,"red",4,0,100,2,"TrialProc","Nontarget",56993,1,550,2,2
167,"red",5,0,100,2,"TrialProc","Nontarget",60459,1,477,2,2
167,"red",6,0,100,2,"TrialProc","Nontarget",63991,1,492,2,2
167,"red",7,0,100,2,"TrialProc","Nontarget",67474,1,452,2,2
167,"red",8,0,100,2,"TrialProc","Nontarget",70973,1,414,2,2
167,"red",9,0,100,2,"TrialProc","Nontarget",74522,1,433,2,2
167,"red",10,0,100,2,"TrialProc","Lure",78238,1,630,2,2
167,"red",11,0,90.90909091,2,"TrialProc","Lure",81904,0,773,2,1
167,"red",12,0,91.66666667,2,"TrialProc","Nontarget",85753,1,1105,2,2
167,"red",13,0,92.30769231,2,"TrialProc","Nontarget",89369,1,1210,2,2
167,"red",14,0,92.85714286,2,"TrialProc","Nontarget",92451,1,759,2,2
167,"red",15,0,93.33333333,2,"TrialProc","Nontarget",95634,1,418,2,2
167,"red",16,0,93.75,2,"TrialProc","Lure",99266,1,515,2,2
167,"red",17,0,94.11764706,2,"TrialProc","Nontarget",102832,1,550,2,2
167,"red",18,0,94.44444444,2,"TrialProc","Nontarget",106348,1,543,2,2
167,"red",19,0,94.73684211,2,"TrialProc","Nontarget",110297,1,975,2,2
167,"red",20,0,95,2,"TrialProc","Nontarget",113446,1,604,2,2
167,"red",21,100,95.23809524,1,"TrialProc","Target",116846,1,486,2,1
167,"red",22,100,95.45454545,1,"TrialProc","Target",121211,1,1323,2,1
167,"red",23,100,95.65217391,2,"TrialProc","Nontarget",124227,1,827,2,2
167,"red",24,100,95.83333333,1,"TrialProc","Target",127610,1,676,2,1
167,"red",25,100,96,2,"TrialProc","Nontarget",131126,1,674,2,2
167,"red",26,100,96.15384615,2,"TrialProc","Nontarget",135308,1,1332,2,2
167,"red",27,100,96.2962963,1,"TrialProc","Target",138174,1,670,2,1
167,"red",28,100,96.42857143,2,"TrialProc","Nontarget",141590,1,547,2,2
167,"red",29,100,96.55172414,2,"TrialProc","Lure",145706,1,1121,2,2
167,"red",30,100,93.33333333,2,"TrialProc","Nontarget",149622,0,0,2,NA
167,"red",31,100,93.5483871,2,"TrialProc","Nontarget",152754,1,1098,2,2
167,"red",32,100,93.75,2,"TrialProc","Nontarget",155787,1,598,2,2
167,"red",33,100,93.93939394,1,"TrialProc","Target",159386,1,670,2,1
167,"red",34,100,94.11764706,1,"TrialProc","Target",162852,1,602,2,1
167,"red",35,100,94.28571429,2,"TrialProc","Nontarget",166268,1,471,2,2
167,"red",36,100,94.44444444,2,"TrialProc","Nontarget",169850,1,511,2,2
167,"red",37,100,94.59459459,2,"TrialProc","Nontarget",173383,1,524,2,2
167,"red",38,100,94.73684211,2,"TrialProc","Nontarget",176849,1,460,2,2
167,"red",39,100,94.87179487,1,"TrialProc","Target",180548,1,630,2,1
167,"red",40,100,95,2,"TrialProc","Nontarget",184030,1,589,2,2
167,"red",41,100,95.12195122,1,"TrialProc","Target",187529,1,556,2,1
167,"red",42,100,95.23809524,2,"TrialProc","Nontarget",191079,1,573,2,2
167,"red",43,100,95.34883721,2,"TrialProc","Nontarget",194544,1,519,2,2
167,"red",44,100,95.45454545,1,"TrialProc","Target",198027,1,468,2,1
167,"red",45,100,95.55555556,1,"TrialProc","Target",201876,1,788,2,1
167,"red",46,100,95.65217391,2,"TrialProc","Nontarget",205109,1,470,2,2
167,"red",47,100,95.74468085,2,"TrialProc","Lure",209091,1,918,2,2
167,"red",48,100,95.83333333,2,"TrialProc","Nontarget",212374,1,667,2,2
167,"red",49,100,95.91836735,2,"TrialProc","Lure",215790,1,554,2,2
167,"red",50,100,96,2,"TrialProc","Nontarget",219389,1,607,2,2
167,"red",51,100,96.07843137,2,"TrialProc","Nontarget",222988,1,672,2,2
167,"red",52,100,96.15384615,1,"TrialProc","Target",226387,1,540,2,1
167,"red",53,100,96.22641509,2,"TrialProc","Nontarget",230353,1,983,2,2
167,"red",54,100,96.2962963,2,"TrialProc","Nontarget",233719,1,825,2,2
167,"red",55,100,96.36363636,2,"TrialProc","Nontarget",237051,1,633,2,2
167,"red",56,100,96.42857143,2,"TrialProc","Nontarget",240534,1,575,2,2
167,"red",57,100,96.49122807,1,"TrialProc","Target",243950,1,471,2,1
167,"red",58,100,96.55172414,1,"TrialProc","Target",247733,1,717,2,1
167,"red",59,100,96.61016949,2,"TrialProc","Nontarget",251265,1,725,2,2
167,"red",60,100,96.66666667,2,"TrialProc","Nontarget",254714,1,644,2,2
167,"red",61,100,96.72131148,2,"TrialProc","Nontarget",258163,1,567,2,2
167,"red",62,100,96.77419355,1,"TrialProc","Target",261712,1,587,2,1
167,"red",63,100,96.82539683,1,"TrialProc","Target",265295,1,628,2,1
167,"red",64,100,96.875,1,"TrialProc","Target",268727,1,526,2,1
168,"black",1,0,0,2,"TrialProc","Nontarget",125006,0,0,1,NA
168,"black",2,0,50,2,"TrialProc","Nontarget",128015,1,991,1,2
168,"black",3,0,66.66666667,2,"TrialProc","Nontarget",131241,1,699,1,2
168,"black",4,0,75,2,"TrialProc","Nontarget",134702,1,638,1,2
168,"black",5,0,60,2,"TrialProc","Lure",138613,0,1025,1,1
168,"black",6,100,66.66666667,1,"TrialProc","Target",141940,1,822,1,1
168,"black",7,100,71.42857143,2,"TrialProc","Nontarget",145785,1,1143,1,2
168,"black",8,100,75,2,"TrialProc","Nontarget",148794,1,619,1,2
168,"black",9,100,66.66666667,2,"TrialProc","Nontarget",152371,0,680,1,1
168,"black",10,100,70,1,"TrialProc","Target",155781,1,578,1,1
168,"black",11,100,72.72727273,2,"TrialProc","Nontarget",159760,1,1040,1,2
168,"black",12,100,66.66666667,2,"TrialProc","Lure",163153,0,916,1,1
168,"black",13,100,69.23076923,2,"TrialProc","Nontarget",166497,1,751,1,2
168,"black",14,100,64.28571429,2,"TrialProc","Lure",170074,0,814,1,1
168,"black",15,100,66.66666667,2,"TrialProc","Nontarget",173618,1,837,1,2
168,"black",16,100,62.5,2,"TrialProc","Lure",177045,0,744,1,1
168,"black",17,100,64.70588235,2,"TrialProc","Nontarget",180472,1,643,1,2
168,"black",18,100,61.11111111,2,"TrialProc","Nontarget",184417,0,1065,1,1
168,"black",19,100,63.15789474,1,"TrialProc","Target",187543,1,681,1,1
168,"black",20,100,65,2,"TrialProc","Nontarget",191053,1,668,1,2
168,"black",21,100,66.66666667,1,"TrialProc","Target",194982,1,1084,1,1
168,"black",22,100,68.18181818,2,"TrialProc","Nontarget",198208,1,792,1,2
168,"black",23,100,69.56521739,2,"TrialProc","Nontarget",201719,1,779,1,2
168,"black",24,100,66.66666667,2,"TrialProc","Nontarget",205179,0,720,1,1
168,"black",25,100,68,1,"TrialProc","Target",208690,1,714,1,1
168,"black",26,100,69.23076923,2,"TrialProc","Nontarget",212484,1,986,1,2
168,"black",27,100,70.37037037,1,"TrialProc","Target",215878,1,866,1,1
168,"black",28,100,71.42857143,1,"TrialProc","Target",219422,1,893,1,1
168,"black",29,100,68.96551724,2,"TrialProc","Nontarget",222765,0,710,1,1
168,"black",30,100,66.66666667,2,"TrialProc","Nontarget",226510,0,934,1,1
168,"black",31,100,67.74193548,1,"TrialProc","Target",229736,1,638,1,1
168,"black",32,100,68.75,2,"TrialProc","Nontarget",234032,1,1414,1,2
168,"black",33,100,69.6969697,2,"TrialProc","Nontarget",237058,1,922,1,2
168,"black",34,100,70.58823529,2,"TrialProc","Nontarget",240384,1,729,1,2
168,"black",35,100,71.42857143,2,"TrialProc","Lure",243979,1,812,1,2
168,"black",36,100,72.22222222,1,"TrialProc","Target",247355,1,669,1,1
168,"black",37,100,72.97297297,2,"TrialProc","Nontarget",251218,1,1017,1,2
168,"black",38,100,73.68421053,1,"TrialProc","Target",254460,1,746,1,1
168,"black",39,100,74.35897436,2,"TrialProc","Nontarget",257887,1,651,1,2
168,"black",40,100,75,1,"TrialProc","Target",261648,1,896,1,1
168,"black",41,100,75.6097561,2,"TrialProc","Nontarget",265426,1,1163,1,2
168,"black",42,100,73.80952381,2,"TrialProc","Lure",268803,0,1025,1,1
168,"black",43,100,72.09302326,2,"TrialProc","Lure",272129,0,830,1,1
168,"black",44,100,70.45454545,2,"TrialProc","Nontarget",275506,0,697,1,1
168,"black",45,100,68.88888889,2,"TrialProc","Nontarget",279067,0,736,1,1
168,"black",46,100,67.39130435,2,"TrialProc","Nontarget",282678,0,818,1,1
168,"black",47,100,65.95744681,2,"TrialProc","Lure",285871,0,498,1,1
168,"black",48,100,66.66666667,1,"TrialProc","Target",289431,1,549,1,1
168,"black",49,100,65.30612245,2,"TrialProc","Nontarget",293042,0,646,1,1
168,"black",50,100,64,2,"TrialProc","Nontarget",296519,0,607,1,1
168,"black",51,100,64.70588235,1,"TrialProc","Target",300314,1,869,1,1
168,"black",52,100,65.38461538,1,"TrialProc","Target",303490,1,530,1,1
168,"black",53,100,64.1509434,2,"TrialProc","Nontarget",307017,0,546,1,1
168,"black",54,100,62.96296296,2,"TrialProc","Nontarget",310879,0,889,1,1
168,"black",55,100,61.81818182,2,"TrialProc","Nontarget",314138,0,630,1,1
168,"black",56,100,62.5,1,"TrialProc","Target",317465,1,448,1,1
168,"black",57,100,61.40350877,2,"TrialProc","Nontarget",321143,0,607,1,1
168,"black",58,100,60.34482759,2,"TrialProc","Nontarget",324670,0,608,1,1
168,"black",59,100,59.3220339,2,"TrialProc","Nontarget",328180,0,595,1,1
168,"black",60,100,58.33333333,2,"TrialProc","Nontarget",331658,0,562,1,1
168,"black",61,100,57.37704918,2,"TrialProc","Nontarget",335084,0,477,1,1
168,"black",62,100,56.4516129,2,"TrialProc","Nontarget",338812,0,693,1,1
168,"black",63,100,57.14285714,1,"TrialProc","Target",342039,1,395,1,1
168,"black",64,100,57.8125,2,"TrialProc","Nontarget",346034,1,871,1,2
168,"blue",1,0,100,2,"TrialProc","Nontarget",76263,1,319,3,2
168,"blue",2,0,100,2,"TrialProc","Nontarget",79841,1,370,3,2
168,"blue",3,0,100,2,"TrialProc","Nontarget",83451,1,461,3,2
168,"blue",4,0,100,2,"TrialProc","Nontarget",86928,1,432,3,2
168,"blue",5,0,100,2,"TrialProc","Nontarget",90506,1,499,3,2
168,"blue",6,0,100,2,"TrialProc","Nontarget",94100,1,578,3,2
168,"blue",7,0,100,2,"TrialProc","Nontarget",97510,1,478,3,2
168,"blue",8,0,100,2,"TrialProc","Nontarget",101154,1,614,3,2
168,"blue",9,100,100,1,"TrialProc","Target",104932,1,878,3,1
168,"blue",10,100,100,2,"TrialProc","Nontarget",108844,1,1280,3,2
168,"blue",11,100,100,2,"TrialProc","Nontarget",111719,1,635,3,2
168,"blue",12,100,100,2,"TrialProc","Nontarget",115146,1,549,3,2
168,"blue",13,100,100,1,"TrialProc","Target",119075,1,961,3,1
168,"blue",14,100,100,2,"TrialProc","Lure",122702,1,1055,3,2
168,"blue",15,100,100,1,"TrialProc","Target",126196,1,1034,3,1
168,"blue",16,100,93.75,2,"TrialProc","Lure",129807,0,1135,3,1
168,"blue",17,100,94.11764706,2,"TrialProc","Nontarget",132632,1,445,3,2
168,"blue",18,100,94.44444444,2,"TrialProc","Nontarget",136861,1,1163,3,2
168,"blue",19,100,94.73684211,2,"TrialProc","Nontarget",140171,1,958,3,2
168,"blue",20,100,95,2,"TrialProc","Nontarget",143297,1,556,3,2
168,"blue",21,100,95.23809524,2,"TrialProc","Nontarget",146908,1,642,3,2
168,"blue",22,100,95.45454545,2,"TrialProc","Nontarget",150552,1,761,3,2
168,"blue",23,100,95.65217391,2,"TrialProc","Lure",154430,1,1130,3,2
168,"blue",24,100,95.83333333,1,"TrialProc","Target",157891,1,1074,3,1
168,"blue",25,100,92,2,"TrialProc","Lure",161819,0,1481,3,1
168,"blue",26,100,92.30769231,2,"TrialProc","Nontarget",164778,1,928,3,2
168,"blue",27,100,92.59259259,2,"TrialProc","Nontarget",168088,1,717,3,2
168,"blue",28,100,92.85714286,2,"TrialProc","Nontarget",171582,1,684,3,2
168,"blue",29,100,93.10344828,2,"TrialProc","Nontarget",175092,1,668,3,2
168,"blue",30,100,93.33333333,2,"TrialProc","Nontarget",178703,1,758,3,2
168,"blue",31,100,93.5483871,2,"TrialProc","Nontarget",182247,1,772,3,2
168,"blue",32,100,93.75,1,"TrialProc","Target",185858,1,866,3,1
168,"blue",33,100,93.93939394,1,"TrialProc","Target",189703,1,1195,3,1
168,"blue",34,100,94.11764706,2,"TrialProc","Nontarget",192762,1,725,3,2
168,"blue",35,100,94.28571429,2,"TrialProc","Nontarget",196055,1,486,3,2
168,"blue",36,100,94.44444444,2,"TrialProc","Nontarget",199582,1,484,3,2
168,"blue",37,100,94.59459459,2,"TrialProc","Nontarget",203026,1,412,3,2
168,"blue",38,100,94.73684211,2,"TrialProc","Nontarget",206720,1,584,3,2
168,"blue",39,100,94.87179487,2,"TrialProc","Nontarget",210064,1,408,3,2
168,"blue",40,100,95,1,"TrialProc","Target",213674,1,494,3,1
168,"blue",41,100,95.12195122,1,"TrialProc","Target",217703,1,1003,3,1
168,"blue",42,100,95.23809524,1,"TrialProc","Target",221280,1,1064,3,1
168,"blue",43,100,95.34883721,1,"TrialProc","Target",224958,1,1224,3,1
168,"blue",44,100,95.45454545,2,"TrialProc","Nontarget",227733,1,477,3,2
168,"blue",45,90.90909091,93.33333333,1,"TrialProc","Target",231779,0,1004,3,2
168,"blue",46,90.90909091,93.47826087,2,"TrialProc","Nontarget",234871,1,575,3,2
168,"blue",47,90.90909091,93.61702128,2,"TrialProc","Nontarget",238281,1,455,3,2
168,"blue",48,90.90909091,93.75,2,"TrialProc","Nontarget",241875,1,529,3,2
168,"blue",49,91.66666667,93.87755102,1,"TrialProc","Target",245687,1,819,3,1
168,"blue",50,91.66666667,94,2,"TrialProc","Nontarget",249047,1,658,3,2
168,"blue",51,91.66666667,94.11764706,2,"TrialProc","Nontarget",252775,1,863,3,2
168,"blue",52,91.66666667,94.23076923,2,"TrialProc","Nontarget",256068,1,647,3,2
168,"blue",53,92.30769231,94.33962264,1,"TrialProc","Target",259428,1,491,3,1
168,"blue",54,85.71428571,92.59259259,1,"TrialProc","Target",263540,0,1072,3,2
168,"blue",55,85.71428571,90.90909091,2,"TrialProc","Nontarget",267485,0,0,3,NA
168,"blue",56,85.71428571,91.07142857,2,"TrialProc","Nontarget",270043,1,549,3,2
168,"blue",57,85.71428571,91.22807018,2,"TrialProc","Nontarget",273537,1,531,3,2
168,"blue",58,86.66666667,91.37931034,1,"TrialProc","Target",277265,1,738,3,1
168,"blue",59,86.66666667,91.52542373,2,"TrialProc","Nontarget",280558,1,509,3,2
168,"blue",60,86.66666667,91.66666667,2,"TrialProc","Nontarget",284319,1,740,3,2
168,"blue",61,86.66666667,91.80327869,2,"TrialProc","Nontarget",287830,1,726,3,2
168,"blue",62,86.66666667,91.93548387,2,"TrialProc","Lure",291257,1,628,3,2
168,"blue",63,87.5,92.06349206,1,"TrialProc","Target",294583,1,444,3,1
168,"blue",64,87.5,92.1875,2,"TrialProc","Nontarget",298194,1,538,3,2
168,"purple",1,0,100,2,"TrialProc","Nontarget",95380,1,388,4,2
168,"purple",2,0,100,2,"TrialProc","Nontarget",98790,1,281,4,2
168,"purple",3,0,100,2,"TrialProc","Nontarget",102334,1,305,4,2
168,"purple",4,0,100,2,"TrialProc","Nontarget",105945,1,397,4,2
168,"purple",5,0,100,2,"TrialProc","Nontarget",109756,1,696,4,2
168,"purple",6,0,100,2,"TrialProc","Nontarget",113685,1,1114,4,2
168,"purple",7,100,100,1,"TrialProc","Target",116811,1,731,4,1
168,"purple",8,100,100,2,"TrialProc","Nontarget",120438,1,841,4,2
168,"purple",9,100,100,1,"TrialProc","Target",123933,1,818,4,1
168,"purple",10,100,100,2,"TrialProc","Nontarget",127527,1,901,4,2
168,"purple",11,100,100,1,"TrialProc","Target",130953,1,809,4,1
168,"purple",12,100,100,2,"TrialProc","Nontarget",134180,1,508,4,2
168,"purple",13,100,100,1,"TrialProc","Target",138024,1,830,4,1
168,"purple",14,100,100,2,"TrialProc","Nontarget",141953,1,1246,4,2
168,"purple",15,100,100,2,"TrialProc","Nontarget",144945,1,727,4,2
168,"purple",16,100,100,2,"TrialProc","Nontarget",148589,1,866,4,2
168,"purple",17,100,100,2,"TrialProc","Nontarget",152601,1,1360,4,2
168,"purple",18,100,100,2,"TrialProc","Nontarget",155861,1,1090,4,2
168,"purple",19,100,100,2,"TrialProc","Nontarget",159472,1,1183,4,2
168,"purple",20,100,95,2,"TrialProc","Lure",162548,0,733,4,1
168,"purple",21,100,95.23809524,2,"TrialProc","Nontarget",165908,1,578,4,2
168,"purple",22,80,90.90909091,1,"TrialProc","Target",169904,0,1068,4,2
168,"purple",23,80,91.30434783,2,"TrialProc","Nontarget",173146,1,798,4,2
168,"purple",24,80,91.66666667,2,"TrialProc","Nontarget",176540,1,677,4,2
168,"purple",25,80,92,2,"TrialProc","Nontarget",180435,1,1037,4,2
168,"purple",26,80,92.30769231,2,"TrialProc","Nontarget",183845,1,924,4,2
168,"purple",27,80,92.59259259,2,"TrialProc","Nontarget",186971,1,523,4,2
168,"purple",28,80,92.85714286,2,"TrialProc","Nontarget",190498,1,525,4,2
168,"purple",29,80,93.10344828,2,"TrialProc","Nontarget",194142,1,636,4,2
168,"purple",30,83.33333333,93.33333333,1,"TrialProc","Target",197436,1,399,4,1
168,"purple",31,85.71428571,93.5483871,1,"TrialProc","Target",201448,1,890,4,1
168,"purple",32,85.71428571,93.75,2,"TrialProc","Nontarget",205142,1,1062,4,2
168,"purple",33,85.71428571,90.90909091,2,"TrialProc","Lure",208753,0,1162,4,1
168,"purple",34,85.71428571,91.17647059,2,"TrialProc","Nontarget",211946,1,822,4,2
168,"purple",35,85.71428571,91.42857143,2,"TrialProc","Nontarget",215222,1,574,4,2
168,"purple",36,85.71428571,91.66666667,2,"TrialProc","Nontarget",218733,1,563,4,2
168,"purple",37,85.71428571,91.89189189,2,"TrialProc","Nontarget",222761,1,1077,4,2
168,"purple",38,75,89.47368421,1,"TrialProc","Target",226706,0,0,4,NA
168,"purple",39,75,89.74358974,2,"TrialProc","Nontarget",229431,1,705,4,2
168,"purple",40,75,90,2,"TrialProc","Nontarget",233092,1,846,4,2
168,"purple",41,77.77777778,90.24390244,1,"TrialProc","Target",237021,1,1252,4,1
168,"purple",42,80,90.47619048,1,"TrialProc","Target",240531,1,1238,4,1
168,"purple",43,80,90.69767442,2,"TrialProc","Nontarget",243356,1,548,4,2
168,"purple",44,80,90.90909091,2,"TrialProc","Nontarget",247017,1,692,4,2
168,"purple",45,80,91.11111111,2,"TrialProc","Nontarget",250611,1,764,4,2
168,"purple",46,80,91.30434783,2,"TrialProc","Nontarget",253971,1,614,4,2
168,"purple",47,81.81818182,91.4893617,1,"TrialProc","Target",257549,1,677,4,1
168,"purple",48,81.81818182,91.66666667,2,"TrialProc","Nontarget",260909,1,515,4,2
168,"purple",49,75,89.79591837,1,"TrialProc","Target",264235,0,321,4,2
168,"purple",50,75,90,2,"TrialProc","Lure",268248,1,817,4,2
168,"purple",51,75,90.19607843,2,"TrialProc","Nontarget",271741,1,795,4,2
168,"purple",52,69.23076923,88.46153846,1,"TrialProc","Target",275302,0,837,4,2
168,"purple",53,69.23076923,88.67924528,2,"TrialProc","Nontarget",278695,1,705,4,2
168,"purple",54,69.23076923,88.88888889,2,"TrialProc","Nontarget",282039,1,528,4,2
168,"purple",55,69.23076923,89.09090909,2,"TrialProc","Nontarget",285850,1,821,4,2
168,"purple",56,64.28571429,87.5,1,"TrialProc","Target",289411,0,864,4,2
168,"purple",57,64.28571429,87.71929825,2,"TrialProc","Nontarget",292637,1,575,4,2
168,"purple",58,64.28571429,87.93103448,2,"TrialProc","Nontarget",296047,1,454,4,2
168,"purple",59,64.28571429,88.13559322,2,"TrialProc","Nontarget",299742,1,629,4,2
168,"purple",60,66.66666667,88.33333333,1,"TrialProc","Target",303102,1,480,4,1
168,"purple",61,68.75,88.52459016,1,"TrialProc","Target",307181,1,1050,4,1
168,"purple",62,68.75,88.70967742,2,"TrialProc","Nontarget",310708,1,1066,4,2
168,"purple",63,68.75,88.88888889,2,"TrialProc","Nontarget",314151,1,993,4,2
168,"purple",64,68.75,89.0625,2,"TrialProc","Nontarget",317562,1,869,4,2
168,"red",1,0,100,2,"TrialProc","Nontarget",29967,1,420,2,2
168,"red",2,0,100,2,"TrialProc","Nontarget",33996,1,934,2,2
168,"red",3,0,100,2,"TrialProc","Nontarget",37190,1,617,2,2
168,"red",4,0,100,2,"TrialProc","Nontarget",40616,1,529,2,2
168,"red",5,0,100,2,"TrialProc","Nontarget",44461,1,856,2,2
168,"red",6,0,100,2,"TrialProc","Nontarget",47888,1,764,2,2
168,"red",7,100,100,1,"TrialProc","Target",51766,1,1122,2,1
168,"red",8,100,100,2,"TrialProc","Nontarget",54909,1,739,2,2
168,"red",9,100,100,2,"TrialProc","Nontarget",58536,1,850,2,2
168,"red",10,100,100,2,"TrialProc","Nontarget",61763,1,566,2,2
168,"red",11,50,90.90909091,1,"TrialProc","Target",66209,0,0,2,NA
168,"red",12,66.66666667,91.66666667,1,"TrialProc","Target",69385,1,1162,2,1
168,"red",13,66.66666667,92.30769231,2,"TrialProc","Nontarget",72612,1,884,2,2
168,"red",14,75,92.85714286,1,"TrialProc","Target",75871,1,632,2,1
168,"red",15,75,93.33333333,2,"TrialProc","Nontarget",79349,1,593,2,2
168,"red",16,75,87.5,2,"TrialProc","Nontarget",83277,0,1000,2,1
168,"red",17,75,88.23529412,2,"TrialProc","Nontarget",86470,1,674,2,2
168,"red",18,75,88.88888889,2,"TrialProc","Nontarget",89947,1,625,2,2
168,"red",19,75,89.47368421,2,"TrialProc","Nontarget",93474,1,621,2,2
168,"red",20,75,90,2,"TrialProc","Nontarget",96934,1,561,2,2
168,"red",21,80,90.47619048,1,"TrialProc","Target",100846,1,958,2,1
168,"red",22,80,90.90909091,2,"TrialProc","Nontarget",104022,1,610,2,2
168,"red",23,80,91.30434783,2,"TrialProc","Nontarget",107600,1,683,2,2
168,"red",24,80,91.66666667,2,"TrialProc","Nontarget",111160,1,722,2,2
168,"red",25,80,88,2,"TrialProc","Lure",115457,0,0,2,NA
168,"red",26,80,88.46153846,2,"TrialProc","Nontarget",118181,1,706,2,2
168,"red",27,80,88.88888889,2,"TrialProc","Nontarget",121976,1,983,2,2
168,"red",28,83.33333333,89.28571429,1,"TrialProc","Target",125336,1,824,2,1
168,"red",29,85.71428571,89.65517241,1,"TrialProc","Target",128914,1,876,2,1
168,"red",30,85.71428571,90,2,"TrialProc","Nontarget",132207,1,640,2,2
168,"red",31,85.71428571,90.32258065,2,"TrialProc","Nontarget",135684,1,598,2,2
168,"red",32,85.71428571,90.625,2,"TrialProc","Nontarget",139211,1,604,2,2
168,"red",33,87.5,90.90909091,1,"TrialProc","Target",142956,1,830,2,1
168,"red",34,87.5,91.17647059,2,"TrialProc","Nontarget",146148,1,512,2,2
168,"red",35,88.88888889,91.42857143,1,"TrialProc","Target",150127,1,971,2,1
168,"red",36,88.88888889,91.66666667,2,"TrialProc","Nontarget",153504,1,830,2,2
168,"red",37,90,91.89189189,1,"TrialProc","Target",157048,1,857,2,1
168,"red",38,90.90909091,92.10526316,1,"TrialProc","Target",160475,1,752,2,1
168,"red",39,90.90909091,92.30769231,2,"TrialProc","Nontarget",163851,1,615,2,2
168,"red",40,90.90909091,92.5,2,"TrialProc","Lure",167780,1,1029,2,2
168,"red",41,91.66666667,92.68292683,1,"TrialProc","Target",171407,1,1147,2,1
168,"red",42,91.66666667,92.85714286,2,"TrialProc","Nontarget",174416,1,637,2,2
168,"red",43,91.66666667,93.02325581,2,"TrialProc","Nontarget",177877,1,574,2,2
168,"red",44,91.66666667,93.18181818,2,"TrialProc","Lure",181989,1,1154,2,2
168,"red",45,91.66666667,91.11111111,2,"TrialProc","Lure",185316,0,955,2,1
168,"red",46,91.66666667,89.13043478,2,"TrialProc","Lure",188943,0,1053,2,1
168,"red",47,91.66666667,89.36170213,2,"TrialProc","Nontarget",192387,1,971,2,2
168,"red",48,91.66666667,89.58333333,2,"TrialProc","Nontarget",195613,1,666,2,2
168,"red",49,91.66666667,89.79591837,2,"TrialProc","Lure",199491,1,1033,2,2
168,"red",50,91.66666667,90,2,"TrialProc","Nontarget",202551,1,576,2,2
168,"red",51,91.66666667,90.19607843,2,"TrialProc","Nontarget",206145,1,640,2,2
168,"red",52,92.30769231,90.38461538,1,"TrialProc","Target",209572,1,546,2,1
168,"red",53,92.30769231,90.56603774,2,"TrialProc","Nontarget",213433,1,872,2,2
168,"red",54,92.30769231,90.74074074,2,"TrialProc","Nontarget",216793,1,709,2,2
168,"red",55,92.30769231,90.90909091,2,"TrialProc","Nontarget",220120,1,512,2,2
168,"red",56,92.85714286,91.07142857,1,"TrialProc","Target",223998,1,881,2,1
168,"red",57,93.33333333,91.22807018,1,"TrialProc","Target",227425,1,799,2,1
168,"red",58,93.33333333,91.37931034,2,"TrialProc","Nontarget",230785,1,638,2,2
168,"red",59,93.33333333,91.52542373,2,"TrialProc","Nontarget",234195,1,530,2,2
168,"red",60,93.33333333,91.66666667,2,"TrialProc","Nontarget",237706,1,525,2,2
168,"red",61,93.33333333,91.80327869,2,"TrialProc","Nontarget",241534,1,819,2,2
168,"red",62,93.33333333,91.93548387,2,"TrialProc","Nontarget",244777,1,546,2,2
168,"red",63,93.33333333,92.06349206,2,"TrialProc","Nontarget",248204,1,460,2,2
168,"red",64,93.75,92.1875,1,"TrialProc","Target",251915,1,639,2,1
169,"black",1,0,100,2,"TrialProc","Nontarget",156238,1,488,1,2
169,"black",2,0,50,2,"TrialProc","Nontarget",160787,0,0,1,NA
169,"black",3,0,66.66666667,2,"TrialProc","Nontarget",164219,1,1398,1,2
169,"black",4,0,75,2,"TrialProc","Nontarget",167119,1,764,1,2
169,"black",5,0,80,2,"TrialProc","Lure",170668,1,783,1,2
169,"black",6,100,83.33333333,1,"TrialProc","Target",174517,1,1102,1,1
169,"black",7,100,85.71428571,2,"TrialProc","Nontarget",177733,1,782,1,2
169,"black",8,100,87.5,2,"TrialProc","Nontarget",181365,1,886,1,2
169,"black",9,100,77.77777778,2,"TrialProc","Nontarget",184981,0,968,1,1
169,"black",10,100,80,1,"TrialProc","Target",188164,1,616,1,1
169,"black",11,100,81.81818182,2,"TrialProc","Nontarget",191563,1,486,1,2
169,"black",12,100,83.33333333,2,"TrialProc","Lure",195562,1,949,1,2
169,"black",13,100,84.61538462,2,"TrialProc","Nontarget",198678,1,543,1,2
169,"black",14,100,78.57142857,2,"TrialProc","Lure",202227,0,563,1,1
169,"black",15,100,80,2,"TrialProc","Nontarget",205826,1,632,1,2
169,"black",16,100,75,2,"TrialProc","Lure",209426,0,711,1,1
169,"black",17,100,76.47058824,2,"TrialProc","Nontarget",213075,1,831,1,2
169,"black",18,100,77.77777778,2,"TrialProc","Nontarget",216791,1,1015,1,2
169,"black",19,66.66666667,73.68421053,1,"TrialProc","Target",220506,0,1196,1,2
169,"black",20,66.66666667,75,2,"TrialProc","Nontarget",223706,1,865,1,2
169,"black",21,50,71.42857143,1,"TrialProc","Target",227805,0,1438,1,2
169,"black",22,50,72.72727273,2,"TrialProc","Nontarget",230604,1,712,1,2
169,"black",23,50,73.91304348,2,"TrialProc","Nontarget",233970,1,552,1,2
169,"black",24,50,75,2,"TrialProc","Nontarget",237403,1,456,1,2
169,"black",25,60,76,1,"TrialProc","Target",241152,1,679,1,1
169,"black",26,60,76.92307692,2,"TrialProc","Nontarget",244884,1,875,1,2
169,"black",27,50,74.07407407,1,"TrialProc","Target",248367,0,831,1,2
169,"black",28,57.14285714,75,1,"TrialProc","Target",252233,1,1158,1,1
169,"black",29,57.14285714,75.86206897,2,"TrialProc","Nontarget",255282,1,683,1,2
169,"black",30,57.14285714,76.66666667,2,"TrialProc","Nontarget",258764,1,644,1,2
169,"black",31,62.5,77.41935484,1,"TrialProc","Target",262314,1,665,1,1
169,"black",32,62.5,78.125,2,"TrialProc","Nontarget",265813,1,639,1,2
169,"black",33,62.5,78.78787879,2,"TrialProc","Nontarget",269595,1,879,1,2
169,"black",34,62.5,79.41176471,2,"TrialProc","Nontarget",273078,1,842,1,2
169,"black",35,62.5,80,2,"TrialProc","Lure",276427,1,661,1,2
169,"black",36,66.66666667,80.55555556,1,"TrialProc","Target",279660,1,368,1,1
169,"black",37,66.66666667,81.08108108,2,"TrialProc","Nontarget",283625,1,799,1,2
169,"black",38,70,81.57894737,1,"TrialProc","Target",287324,1,969,1,1
169,"black",39,70,82.05128205,2,"TrialProc","Nontarget",291140,1,1246,1,2
169,"black",40,72.72727273,82.5,1,"TrialProc","Target",294156,1,744,1,1
169,"black",41,72.72727273,82.92682927,2,"TrialProc","Nontarget",297589,1,647,1,2
169,"black",42,72.72727273,83.33333333,2,"TrialProc","Lure",301421,1,956,1,2
169,"black",43,72.72727273,83.72093023,2,"TrialProc","Lure",304670,1,687,1,2
169,"black",44,72.72727273,84.09090909,2,"TrialProc","Nontarget",308070,1,550,1,2
169,"black",45,72.72727273,84.44444444,2,"TrialProc","Nontarget",311503,1,462,1,2
169,"black",46,72.72727273,84.7826087,2,"TrialProc","Nontarget",315168,1,603,1,2
169,"black",47,72.72727273,85.10638298,2,"TrialProc","Lure",318567,1,472,1,2
169,"black",48,66.66666667,83.33333333,1,"TrialProc","Target",322266,0,629,1,2
169,"black",49,66.66666667,83.67346939,2,"TrialProc","Nontarget",325766,1,592,1,2
169,"black",50,66.66666667,84,2,"TrialProc","Nontarget",329198,1,501,1,2
169,"black",51,61.53846154,82.35294118,1,"TrialProc","Target",332814,0,588,1,2
169,"black",52,64.28571429,82.69230769,1,"TrialProc","Target",336396,1,623,1,1
169,"black",53,64.28571429,83.01886792,2,"TrialProc","Nontarget",339912,1,626,1,2
169,"black",54,64.28571429,83.33333333,2,"TrialProc","Nontarget",343561,1,756,1,2
169,"black",55,64.28571429,83.63636364,2,"TrialProc","Nontarget",346894,1,564,1,2
169,"black",56,60,82.14285714,1,"TrialProc","Target",350460,0,605,1,2
169,"black",57,60,82.45614035,2,"TrialProc","Nontarget",354009,1,614,1,2
169,"black",58,60,82.75862069,2,"TrialProc","Nontarget",357725,1,798,1,2
169,"black",59,60,83.05084746,2,"TrialProc","Nontarget",361091,1,636,1,2
169,"black",60,60,83.33333333,2,"TrialProc","Nontarget",364590,1,599,1,2
169,"black",61,60,83.60655738,2,"TrialProc","Nontarget",368106,1,576,1,2
169,"black",62,60,83.87096774,2,"TrialProc","Nontarget",371722,1,671,1,2
169,"black",63,62.5,84.12698413,1,"TrialProc","Target",375037,1,449,1,1
169,"black",64,62.5,84.375,2,"TrialProc","Nontarget",378470,1,358,1,2
169,"blue",1,0,100,2,"TrialProc","Nontarget",46946,1,722,3,2
169,"blue",2,0,100,2,"TrialProc","Nontarget",50562,1,816,3,2
169,"blue",3,0,100,2,"TrialProc","Nontarget",54028,1,746,3,2
169,"blue",4,0,100,2,"TrialProc","Nontarget",58127,1,1320,3,2
169,"blue",5,0,100,2,"TrialProc","Nontarget",61543,1,1201,3,2
169,"blue",6,0,100,2,"TrialProc","Nontarget",65342,1,1469,3,2
169,"blue",7,0,100,2,"TrialProc","Nontarget",68658,1,1248,3,2
169,"blue",8,0,87.5,2,"TrialProc","Nontarget",72440,0,0,3,NA
169,"blue",9,0,77.77777778,1,"TrialProc","Target",75706,0,1236,3,2
169,"blue",10,0,80,2,"TrialProc","Nontarget",79255,1,1254,3,2
169,"blue",11,0,81.81818182,2,"TrialProc","Nontarget",83004,1,1472,3,2
169,"blue",12,0,83.33333333,2,"TrialProc","Nontarget",85654,1,608,3,2
169,"blue",13,50,84.61538462,1,"TrialProc","Target",89569,1,994,3,1
169,"blue",14,50,85.71428571,2,"TrialProc","Lure",93035,1,929,3,2
169,"blue",15,66.66666667,86.66666667,1,"TrialProc","Target",96468,1,831,3,1
169,"blue",16,66.66666667,87.5,2,"TrialProc","Lure",100420,1,1249,3,2
169,"blue",17,66.66666667,88.23529412,2,"TrialProc","Nontarget",103766,1,1059,3,2
169,"blue",18,66.66666667,88.88888889,2,"TrialProc","Nontarget",107049,1,809,3,2
169,"blue",19,66.66666667,89.47368421,2,"TrialProc","Nontarget",111164,1,1395,3,2
169,"blue",20,66.66666667,90,2,"TrialProc","Nontarget",114164,1,855,3,2
169,"blue",21,66.66666667,90.47619048,2,"TrialProc","Nontarget",117780,1,940,3,2
169,"blue",22,66.66666667,86.36363636,2,"TrialProc","Nontarget",121862,0,0,3,NA
169,"blue",23,66.66666667,82.60869565,2,"TrialProc","Lure",125394,0,0,3,NA
169,"blue",24,50,79.16666667,1,"TrialProc","Target",128927,0,0,3,NA
169,"blue",25,50,76,2,"TrialProc","Lure",132460,0,0,3,NA
169,"blue",26,50,76.92307692,2,"TrialProc","Nontarget",135725,1,1237,3,2
169,"blue",27,50,77.77777778,2,"TrialProc","Nontarget",139158,1,1125,3,2
169,"blue",28,50,78.57142857,2,"TrialProc","Nontarget",142174,1,621,3,2
169,"blue",29,50,79.31034483,2,"TrialProc","Nontarget",145873,1,788,3,2
169,"blue",30,50,80,2,"TrialProc","Nontarget",149239,1,639,3,2
169,"blue",31,50,80.64516129,2,"TrialProc","Nontarget",153121,1,995,3,2
169,"blue",32,60,81.25,1,"TrialProc","Target",156521,1,865,3,1
169,"blue",33,66.66666667,81.81818182,1,"TrialProc","Target",160120,1,940,3,1
169,"blue",34,66.66666667,79.41176471,2,"TrialProc","Nontarget",164202,0,0,3,NA
169,"blue",35,66.66666667,80,2,"TrialProc","Nontarget",167218,1,990,3,2
169,"blue",36,66.66666667,80.55555556,2,"TrialProc","Nontarget",170484,1,736,3,2
169,"blue",37,66.66666667,81.08108108,2,"TrialProc","Nontarget",173817,1,534,3,2
169,"blue",38,66.66666667,81.57894737,2,"TrialProc","Nontarget",177549,1,733,3,2
169,"blue",39,66.66666667,82.05128205,2,"TrialProc","Nontarget",181382,1,1023,3,2
169,"blue",40,57.14285714,80,1,"TrialProc","Target",185381,0,0,3,NA
169,"blue",41,50,78.04878049,1,"TrialProc","Target",188913,0,0,3,NA
169,"blue",42,44.44444444,76.19047619,1,"TrialProc","Target",192446,0,0,3,NA
169,"blue",43,40,74.41860465,1,"TrialProc","Target",195512,0,1024,3,2
169,"blue",44,40,75,2,"TrialProc","Nontarget",198594,1,576,3,2
169,"blue",45,45.45454545,75.55555556,1,"TrialProc","Target",201877,1,337,3,1
169,"blue",46,45.45454545,76.08695652,2,"TrialProc","Nontarget",205676,1,604,3,2
169,"blue",47,45.45454545,76.59574468,2,"TrialProc","Nontarget",209225,1,608,3,2
169,"blue",48,45.45454545,77.08333333,2,"TrialProc","Nontarget",212791,1,645,3,2
169,"blue",49,50,77.55102041,1,"TrialProc","Target",216290,1,619,3,1
169,"blue",50,50,78,2,"TrialProc","Nontarget",219773,1,563,3,2
169,"blue",51,50,78.43137255,2,"TrialProc","Nontarget",224155,1,1418,3,2
169,"blue",52,50,78.84615385,2,"TrialProc","Nontarget",227438,1,1168,3,2
169,"blue",53,46.15384615,77.35849057,1,"TrialProc","Target",230753,0,946,3,2
169,"blue",54,50,77.77777778,1,"TrialProc","Target",234203,1,866,3,1
169,"blue",55,50,78.18181818,2,"TrialProc","Nontarget",237968,1,1101,3,2
169,"blue",56,50,78.57142857,2,"TrialProc","Nontarget",241501,1,1096,3,2
169,"blue",57,50,78.94736842,2,"TrialProc","Nontarget",245017,1,1077,3,2
169,"blue",58,53.33333333,79.31034483,1,"TrialProc","Target",247850,1,389,3,1
169,"blue",59,53.33333333,79.66101695,2,"TrialProc","Nontarget",251717,1,705,3,2
169,"blue",60,53.33333333,78.33333333,2,"TrialProc","Nontarget",256048,0,0,3,NA
169,"blue",61,53.33333333,77.04918033,2,"TrialProc","Nontarget",259580,0,0,3,NA
169,"blue",62,53.33333333,75.80645161,2,"TrialProc","Lure",263113,0,0,3,NA
169,"blue",63,50,74.6031746,1,"TrialProc","Target",266079,0,935,3,2
169,"blue",64,50,75,2,"TrialProc","Nontarget",269178,1,506,3,2
169,"purple",1,0,100,2,"TrialProc","Nontarget",65915,1,434,4,2
169,"purple",2,0,100,2,"TrialProc","Nontarget",69431,1,417,4,2
169,"purple",3,0,100,2,"TrialProc","Nontarget",73897,1,1362,4,2
169,"purple",4,0,100,2,"TrialProc","Nontarget",76746,1,684,4,2
169,"purple",5,0,100,2,"TrialProc","Nontarget",80962,1,1373,4,2
169,"purple",6,0,100,2,"TrialProc","Nontarget",84211,1,1098,4,2
169,"purple",7,0,85.71428571,1,"TrialProc","Target",88143,0,0,4,NA
169,"purple",8,0,87.5,2,"TrialProc","Nontarget",91359,1,1182,4,2
169,"purple",9,0,77.77777778,1,"TrialProc","Target",94425,0,717,4,2
169,"purple",10,0,80,2,"TrialProc","Nontarget",97691,1,458,4,2
169,"purple",11,0,72.72727273,1,"TrialProc","Target",101640,0,893,4,2
169,"purple",12,0,75,2,"TrialProc","Nontarget",105106,1,831,4,2
169,"purple",13,25,76.92307692,1,"TrialProc","Target",108755,1,946,4,1
169,"purple",14,25,78.57142857,2,"TrialProc","Nontarget",112754,1,1425,4,2
169,"purple",15,25,80,2,"TrialProc","Nontarget",115687,1,839,4,2
169,"purple",16,25,81.25,2,"TrialProc","Nontarget",119186,1,826,4,2
169,"purple",17,25,82.35294118,2,"TrialProc","Nontarget",122619,1,743,4,2
169,"purple",18,25,83.33333333,2,"TrialProc","Nontarget",125818,1,410,4,2
169,"purple",19,25,84.21052632,2,"TrialProc","Nontarget",129917,1,993,4,2
169,"purple",20,25,85,2,"TrialProc","Lure",133116,1,655,4,2
169,"purple",21,25,85.71428571,2,"TrialProc","Nontarget",136982,1,1005,4,2
169,"purple",22,20,81.81818182,1,"TrialProc","Target",140881,0,1379,4,2
169,"purple",23,20,82.60869565,2,"TrialProc","Nontarget",144397,1,1367,4,2
169,"purple",24,20,79.16666667,2,"TrialProc","Nontarget",148063,0,0,4,NA
169,"purple",25,20,76,2,"TrialProc","Nontarget",151595,0,0,4,NA
169,"purple",26,20,76.92307692,2,"TrialProc","Nontarget",154328,1,707,4,2
169,"purple",27,20,77.77777778,2,"TrialProc","Nontarget",158310,1,1163,4,2
169,"purple",28,20,78.57142857,2,"TrialProc","Nontarget",161510,1,837,4,2
169,"purple",29,20,79.31034483,2,"TrialProc","Nontarget",164959,1,754,4,2
169,"purple",30,16.66666667,76.66666667,1,"TrialProc","Target",168875,0,1140,4,2
169,"purple",31,28.57142857,77.41935484,1,"TrialProc","Target",171791,1,526,4,1
169,"purple",32,28.57142857,75,2,"TrialProc","Nontarget",176290,0,0,4,NA
169,"purple",33,28.57142857,72.72727273,2,"TrialProc","Lure",179822,0,0,4,NA
169,"purple",34,28.57142857,73.52941176,2,"TrialProc","Nontarget",182838,1,984,4,2
169,"purple",35,28.57142857,74.28571429,2,"TrialProc","Nontarget",186137,1,755,4,2
169,"purple",36,28.57142857,75,2,"TrialProc","Nontarget",189636,1,743,4,2
169,"purple",37,28.57142857,75.67567568,2,"TrialProc","Nontarget",193169,1,742,4,2
169,"purple",38,25,73.68421053,1,"TrialProc","Target",196402,0,450,4,2
169,"purple",39,25,74.35897436,2,"TrialProc","Nontarget",200101,1,626,4,2
169,"purple",40,25,75,2,"TrialProc","Nontarget",203850,1,836,4,2
169,"purple",41,22.22222222,73.17073171,1,"TrialProc","Target",208049,0,0,4,NA
169,"purple",42,20,71.42857143,1,"TrialProc","Target",211332,0,1250,4,2
169,"purple",43,20,72.09302326,2,"TrialProc","Nontarget",214514,1,893,4,2
169,"purple",44,20,72.72727273,2,"TrialProc","Nontarget",217997,1,848,4,2
169,"purple",45,20,73.33333333,2,"TrialProc","Nontarget",221179,1,498,4,2
169,"purple",46,20,71.73913043,2,"TrialProc","Nontarget",225711,0,0,4,NA
169,"purple",47,27.27272727,72.34042553,1,"TrialProc","Target",228411,1,674,4,1
169,"purple",48,27.27272727,72.91666667,2,"TrialProc","Nontarget",231777,1,517,4,2
169,"purple",49,33.33333333,73.46938776,1,"TrialProc","Target",235842,1,1053,4,1
169,"purple",50,33.33333333,72,2,"TrialProc","Lure",239825,0,0,4,NA
169,"purple",51,33.33333333,72.54901961,2,"TrialProc","Nontarget",243091,1,1227,4,2
169,"purple",52,30.76923077,71.15384615,1,"TrialProc","Target",246890,0,0,4,NA
169,"purple",53,30.76923077,69.81132075,2,"TrialProc","Nontarget",250422,0,0,4,NA
169,"purple",54,30.76923077,68.51851852,2,"TrialProc","Nontarget",253955,0,0,4,NA
169,"purple",55,30.76923077,69.09090909,2,"TrialProc","Nontarget",256654,1,661,4,2
169,"purple",56,28.57142857,67.85714286,1,"TrialProc","Target",260903,0,1391,4,2
169,"purple",57,28.57142857,66.66666667,2,"TrialProc","Nontarget",264536,0,0,4,NA
169,"purple",58,28.57142857,65.51724138,2,"TrialProc","Nontarget",268068,0,0,4,NA
169,"purple",59,28.57142857,66.10169492,2,"TrialProc","Nontarget",271518,1,1425,4,2
169,"purple",60,26.66666667,65,1,"TrialProc","Target",274734,0,1121,4,2
169,"purple",61,25,63.93442623,1,"TrialProc","Target",277999,0,849,4,2
169,"purple",62,25,64.51612903,2,"TrialProc","Nontarget",281599,1,916,4,2
169,"purple",63,25,65.07936508,2,"TrialProc","Nontarget",284965,1,755,4,2
169,"purple",64,25,65.625,2,"TrialProc","Nontarget",288581,1,844,4,2
169,"red",1,0,100,2,"TrialProc","Nontarget",76750,1,734,2,2
169,"red",2,0,100,2,"TrialProc","Nontarget",80066,1,518,2,2
169,"red",3,0,100,2,"TrialProc","Nontarget",83731,1,647,2,2
169,"red",4,0,100,2,"TrialProc","Nontarget",87364,1,753,2,2
169,"red",5,0,100,2,"TrialProc","Nontarget",91230,1,1078,2,2
169,"red",6,0,100,2,"TrialProc","Nontarget",94412,1,733,2,2
169,"red",7,0,100,2,"TrialProc","Nontarget",98128,1,923,2,2
169,"red",8,0,87.5,1,"TrialProc","Target",102227,0,0,2,NA
169,"red",9,0,88.88888889,2,"TrialProc","Nontarget",105743,1,1482,2,2
169,"red",10,0,90,2,"TrialProc","Nontarget",108726,1,935,2,2
169,"red",11,0,90.90909091,2,"TrialProc","Nontarget",112558,1,1236,2,2
169,"red",12,50,91.66666667,1,"TrialProc","Target",115524,1,663,2,1
169,"red",13,66.66666667,92.30769231,1,"TrialProc","Target",119007,1,619,2,1
169,"red",14,66.66666667,92.85714286,2,"TrialProc","Lure",122939,1,1009,2,2
169,"red",15,66.66666667,93.33333333,2,"TrialProc","Nontarget",126805,1,1350,2,2
169,"red",16,75,93.75,1,"TrialProc","Target",129438,1,451,2,1
169,"red",17,75,94.11764706,2,"TrialProc","Nontarget",133170,1,647,2,2
169,"red",18,75,94.44444444,2,"TrialProc","Nontarget",136902,1,853,2,2
169,"red",19,75,94.73684211,2,"TrialProc","Nontarget",140185,1,600,2,2
169,"red",20,80,95,1,"TrialProc","Target",144118,1,1004,2,1
169,"red",21,80,95.23809524,2,"TrialProc","Nontarget",147700,1,1053,2,2
169,"red",22,80,95.45454545,2,"TrialProc","Lure",151116,1,938,2,2
169,"red",23,80,95.65217391,2,"TrialProc","Nontarget",154498,1,802,2,2
169,"red",24,83.33333333,95.83333333,1,"TrialProc","Target",158364,1,1143,2,1
169,"red",25,85.71428571,96,1,"TrialProc","Target",161697,1,949,2,1
169,"red",26,85.71428571,96.15384615,2,"TrialProc","Nontarget",164813,1,541,2,2
169,"red",27,85.71428571,96.2962963,2,"TrialProc","Nontarget",168579,1,784,2,2
169,"red",28,85.71428571,92.85714286,2,"TrialProc","Lure",172828,0,0,2,NA
169,"red",29,85.71428571,89.65517241,2,"TrialProc","Lure",175794,0,935,2,1
169,"red",30,85.71428571,90,2,"TrialProc","Nontarget",179043,1,654,2,2
169,"red",31,87.5,90.32258065,1,"TrialProc","Target",182425,1,496,2,1
169,"red",32,88.88888889,90.625,1,"TrialProc","Target",185891,1,440,2,1
169,"red",33,80,87.87878788,1,"TrialProc","Target",190357,0,1382,2,2
169,"red",34,80,85.29411765,2,"TrialProc","Nontarget",194006,0,0,2,NA
169,"red",35,81.81818182,85.71428571,1,"TrialProc","Target",196705,1,669,2,1
169,"red",36,81.81818182,86.11111111,2,"TrialProc","Nontarget",200121,1,553,2,2
169,"red",37,81.81818182,86.48648649,2,"TrialProc","Nontarget",204020,1,920,2,2
169,"red",38,83.33333333,86.84210526,1,"TrialProc","Target",207136,1,506,2,1
169,"red",39,83.33333333,87.17948718,2,"TrialProc","Nontarget",210736,1,595,2,2
169,"red",40,83.33333333,87.5,2,"TrialProc","Nontarget",214351,1,678,2,2
169,"red",41,83.33333333,87.80487805,2,"TrialProc","Lure",217851,1,650,2,2
169,"red",42,83.33333333,88.0952381,2,"TrialProc","Nontarget",221350,1,613,2,2
169,"red",43,83.33333333,88.37209302,2,"TrialProc","Nontarget",224999,1,739,2,2
169,"red",44,84.61538462,88.63636364,1,"TrialProc","Target",228515,1,719,2,1
169,"red",45,84.61538462,88.88888889,2,"TrialProc","Nontarget",232380,1,1052,2,2
169,"red",46,84.61538462,89.13043478,2,"TrialProc","Nontarget",236313,1,1446,2,2
169,"red",47,84.61538462,89.36170213,2,"TrialProc","Nontarget",239612,1,1221,2,2
169,"red",48,85.71428571,89.58333333,1,"TrialProc","Target",242829,1,904,2,1
169,"red",49,85.71428571,89.79591837,2,"TrialProc","Nontarget",245961,1,497,2,2
169,"red",50,85.71428571,90,2,"TrialProc","Nontarget",249560,1,572,2,2
169,"red",51,80,88.23529412,1,"TrialProc","Target",254025,0,0,2,NA
169,"red",52,80,88.46153846,2,"TrialProc","Nontarget",256825,1,766,2,2
169,"red",53,80,88.67924528,2,"TrialProc","Nontarget",260574,1,979,2,2
169,"red",54,80,88.88888889,2,"TrialProc","Lure",263973,1,845,2,2
169,"red",55,80,89.09090909,2,"TrialProc","Nontarget",267539,1,884,2,2
169,"red",56,80,89.28571429,2,"TrialProc","Nontarget",271472,1,1274,2,2
169,"red",57,81.25,89.47368421,1,"TrialProc","Target",274354,1,632,2,1
169,"red",58,81.25,89.65517241,2,"TrialProc","Nontarget",277787,1,532,2,2
169,"red",59,81.25,89.83050847,2,"TrialProc","Nontarget",282169,1,1387,2,2
169,"red",60,81.25,88.33333333,2,"TrialProc","Nontarget",285818,0,0,2,NA
169,"red",61,81.25,88.52459016,2,"TrialProc","Nontarget",288651,1,804,2,2
169,"red",62,81.25,88.70967742,2,"TrialProc","Nontarget",292050,1,661,2,2
169,"red",63,81.25,88.88888889,2,"TrialProc","Nontarget",295666,1,745,2,2
169,"red",64,81.25,89.0625,2,"TrialProc","Nontarget",299782,1,1334,2,2
170,"black",1,0,0,2,"TrialProc","Nontarget",124506,0,0,1,NA
170,"black",2,0,50,2,"TrialProc","Nontarget",127615,1,1092,1,2
170,"black",3,0,33.33333333,2,"TrialProc","Nontarget",131544,0,0,1,NA
170,"black",4,100,50,1,"TrialProc","Target",134636,1,1082,1,1
170,"black",5,100,40,2,"TrialProc","Nontarget",138565,0,0,1,NA
170,"black",6,100,33.33333333,2,"TrialProc","Nontarget",142075,0,0,1,NA
170,"black",7,100,28.57142857,2,"TrialProc","Nontarget",145586,0,0,1,NA
170,"black",8,100,37.5,2,"TrialProc","Lure",148394,1,800,1,2
170,"black",9,100,44.44444444,1,"TrialProc","Target",152340,1,1222,1,1
170,"black",10,100,40,2,"TrialProc","Nontarget",156134,0,0,1,NA
170,"black",11,100,45.45454545,2,"TrialProc","Nontarget",159043,1,893,1,2
170,"black",12,100,50,2,"TrialProc","Nontarget",162704,1,1025,1,2
170,"black",13,100,53.84615385,1,"TrialProc","Target",165980,1,770,1,1
170,"black",14,100,57.14285714,2,"TrialProc","Nontarget",169959,1,1231,1,2
170,"black",15,100,60,2,"TrialProc","Nontarget",173486,1,1247,1,2
170,"black",16,100,62.5,1,"TrialProc","Target",176412,1,653,1,1
170,"black",17,100,64.70588235,2,"TrialProc","Nontarget",180157,1,885,1,2
170,"black",18,100,66.66666667,2,"TrialProc","Lure",183483,1,689,1,2
170,"black",19,100,68.42105263,2,"TrialProc","Nontarget",187010,1,686,1,2
170,"black",20,100,70,2,"TrialProc","Nontarget",191022,1,1172,1,2
170,"black",21,100,71.42857143,2,"TrialProc","Nontarget",194366,1,994,1,2
170,"black",22,100,72.72727273,2,"TrialProc","Lure",198060,1,1165,1,2
170,"black",23,100,73.91304348,2,"TrialProc","Nontarget",201103,1,685,1,2
170,"black",24,100,75,2,"TrialProc","Lure",204864,1,920,1,2
170,"black",25,100,76,2,"TrialProc","Nontarget",208525,1,1065,1,2
170,"black",26,100,76.92307692,2,"TrialProc","Lure",211785,1,801,1,2
170,"black",27,100,77.77777778,2,"TrialProc","Nontarget",215463,1,962,1,2
170,"black",28,100,78.57142857,2,"TrialProc","Lure",218906,1,898,1,2
170,"black",29,100,79.31034483,2,"TrialProc","Nontarget",222133,1,610,1,2
170,"black",30,100,80,2,"TrialProc","Lure",225727,1,680,1,2
170,"black",31,100,80.64516129,1,"TrialProc","Target",229221,1,653,1,1
170,"black",32,100,81.25,2,"TrialProc","Nontarget",232664,1,577,1,2
170,"black",33,100,81.81818182,2,"TrialProc","Nontarget",236442,1,836,1,2
170,"black",34,100,82.35294118,2,"TrialProc","Nontarget",240003,1,870,1,2
170,"black",35,100,82.85714286,1,"TrialProc","Target",243614,1,958,1,1
170,"black",36,100,83.33333333,2,"TrialProc","Nontarget",246840,1,656,1,2
170,"black",37,100,83.78378378,1,"TrialProc","Target",250284,1,581,1,1
170,"black",38,100,84.21052632,2,"TrialProc","Nontarget",253928,1,712,1,2
170,"black",39,100,84.61538462,2,"TrialProc","Nontarget",257455,1,729,1,2
170,"black",40,100,85,2,"TrialProc","Nontarget",260983,1,740,1,2
170,"black",41,87.5,82.92682927,1,"TrialProc","Target",264644,0,878,1,2
170,"black",42,87.5,83.33333333,2,"TrialProc","Nontarget",268371,1,1095,1,2
170,"black",43,87.5,81.39534884,2,"TrialProc","Nontarget",272283,0,0,1,NA
170,"black",44,88.88888889,81.81818182,1,"TrialProc","Target",274975,1,679,1,1
170,"black",45,88.88888889,82.22222222,2,"TrialProc","Nontarget",278502,1,685,1,2
170,"black",46,90,82.60869565,1,"TrialProc","Target",282063,1,728,1,1
170,"black",47,90.90909091,82.9787234,1,"TrialProc","Target",285707,1,864,1,1
170,"black",48,90.90909091,83.33333333,2,"TrialProc","Nontarget",288917,1,552,1,2
170,"black",49,90.90909091,83.67346939,2,"TrialProc","Nontarget",292527,1,645,1,2
170,"black",50,90.90909091,84,2,"TrialProc","Nontarget",296255,1,854,1,2
170,"black",51,90.90909091,84.31372549,2,"TrialProc","Lure",299682,1,752,1,2
170,"black",52,83.33333333,82.69230769,1,"TrialProc","Target",302975,0,528,1,2
170,"black",53,83.33333333,83.01886792,2,"TrialProc","Nontarget",306971,1,1012,1,2
170,"black",54,76.92307692,81.48148148,1,"TrialProc","Target",310732,0,1236,1,2
170,"black",55,71.42857143,80,1,"TrialProc","Target",314510,0,0,1,NA
170,"black",56,71.42857143,80.35714286,2,"TrialProc","Nontarget",317302,1,782,1,2
170,"black",57,71.42857143,80.70175439,2,"TrialProc","Nontarget",320929,1,886,1,2
170,"black",58,73.33333333,81.03448276,1,"TrialProc","Target",324440,1,877,1,1
170,"black",59,73.33333333,81.3559322,2,"TrialProc","Nontarget",328017,1,918,1,2
170,"black",60,73.33333333,80,2,"TrialProc","Nontarget",332113,0,0,1,NA
170,"black",61,75,80.32786885,1,"TrialProc","Target",334771,1,641,1,1
170,"black",62,75,80.64516129,2,"TrialProc","Nontarget",338516,1,860,1,2
170,"black",63,75,79.36507937,2,"TrialProc","Nontarget",342678,0,0,1,NA
170,"black",64,75,79.6875,2,"TrialProc","Nontarget",345553,1,857,1,2
170,"blue",1,0,100,2,"TrialProc","Nontarget",70651,1,708,3,2
170,"blue",2,0,100,2,"TrialProc","Nontarget",74295,1,832,3,2
170,"blue",3,0,100,2,"TrialProc","Nontarget",77705,1,724,3,2
170,"blue",4,0,75,2,"TrialProc","Lure",80948,0,437,3,1
170,"blue",5,0,80,2,"TrialProc","Nontarget",85078,1,1049,3,2
170,"blue",6,0,66.66666667,2,"TrialProc","Nontarget",89039,0,0,3,NA
170,"blue",7,0,57.14285714,2,"TrialProc","Nontarget",92550,0,0,3,NA
170,"blue",8,0,62.5,2,"TrialProc","Nontarget",95559,1,990,3,2
170,"blue",9,0,66.66666667,2,"TrialProc","Nontarget",99304,1,1210,3,2
170,"blue",10,0,60,1,"TrialProc","Target",102547,0,924,3,2
170,"blue",11,0,54.54545455,2,"TrialProc","Lure",106642,0,0,3,NA
170,"blue",12,0,50,2,"TrialProc","Nontarget",110153,0,0,3,NA
170,"blue",13,0,46.15384615,2,"TrialProc","Nontarget",113663,0,0,3,NA
170,"blue",14,0,50,2,"TrialProc","Nontarget",116873,1,1188,3,2
170,"blue",15,0,46.66666667,2,"TrialProc","Nontarget",120701,0,0,3,NA
170,"blue",16,0,43.75,1,"TrialProc","Target",123844,0,1130,3,2
170,"blue",17,0,47.05882353,2,"TrialProc","Nontarget",127321,1,1093,3,2
170,"blue",18,0,50,2,"TrialProc","Nontarget",130464,1,703,3,2
170,"blue",19,0,52.63157895,2,"TrialProc","Lure",133841,1,561,3,2
170,"blue",20,0,55,2,"TrialProc","Lure",137519,1,734,3,2
170,"blue",21,33.33333333,57.14285714,1,"TrialProc","Target",141263,1,966,3,1
170,"blue",22,33.33333333,54.54545455,2,"TrialProc","Nontarget",145309,0,0,3,NA
170,"blue",23,50,56.52173913,1,"TrialProc","Target",148384,1,1051,3,1
170,"blue",24,50,58.33333333,2,"TrialProc","Nontarget",152062,1,1205,3,2
170,"blue",25,50,60,2,"TrialProc","Nontarget",155172,1,789,3,2
170,"blue",26,40,57.69230769,1,"TrialProc","Target",158682,0,779,3,2
170,"blue",27,40,59.25925926,2,"TrialProc","Nontarget",162209,1,785,3,2
170,"blue",28,40,60.71428571,2,"TrialProc","Nontarget",165703,1,764,3,2
170,"blue",29,40,62.06896552,2,"TrialProc","Nontarget",168528,1,70,3,2
170,"blue",30,33.33333333,60,1,"TrialProc","Target",173477,0,0,3,NA
170,"blue",31,42.85714286,61.29032258,1,"TrialProc","Target",176820,1,1328,3,1
170,"blue",32,42.85714286,62.5,2,"TrialProc","Nontarget",179812,1,786,3,2
170,"blue",33,42.85714286,63.63636364,2,"TrialProc","Nontarget",183657,1,1117,3,2
170,"blue",34,42.85714286,64.70588235,2,"TrialProc","Nontarget",186466,1,411,3,2
170,"blue",35,37.5,62.85714286,1,"TrialProc","Target",190327,0,759,3,2
170,"blue",36,37.5,63.88888889,2,"TrialProc","Nontarget",194222,1,1133,3,2
170,"blue",37,33.33333333,62.16216216,1,"TrialProc","Target",198101,0,0,3,NA
170,"blue",38,33.33333333,60.52631579,2,"TrialProc","Nontarget",201611,0,0,3,NA
170,"blue",39,30,58.97435897,1,"TrialProc","Target",205122,0,0,3,NA
170,"blue",40,30,57.5,2,"TrialProc","Nontarget",208632,0,0,3,NA
170,"blue",41,30,56.09756098,2,"TrialProc","Nontarget",211558,0,903,3,1
170,"blue",42,30,57.14285714,2,"TrialProc","Nontarget",215486,1,1308,3,2
170,"blue",43,30,58.13953488,2,"TrialProc","Nontarget",218361,1,663,3,2
170,"blue",44,30,59.09090909,2,"TrialProc","Nontarget",221972,1,762,3,2
170,"blue",45,36.36363636,60,1,"TrialProc","Target",225834,1,1117,3,1
170,"blue",46,36.36363636,60.86956522,2,"TrialProc","Nontarget",229679,1,1452,3,2
170,"blue",47,33.33333333,59.57446809,1,"TrialProc","Target",233239,0,0,3,NA
170,"blue",48,33.33333333,58.33333333,2,"TrialProc","Nontarget",236750,0,0,3,NA
170,"blue",49,33.33333333,57.14285714,2,"TrialProc","Nontarget",240261,0,0,3,NA
170,"blue",50,33.33333333,58,2,"TrialProc","Nontarget",243169,1,897,3,2
170,"blue",51,33.33333333,56.8627451,2,"TrialProc","Nontarget",247282,0,0,3,NA
170,"blue",52,33.33333333,57.69230769,2,"TrialProc","Nontarget",250475,1,1170,3,2
